participant_id,block_num,dynamic,static,av,sv,as,trial,state,response,rt,correct
01,1,False,True,False,False,True,1,ss,s,1.7162940502166748,True
01,1,False,True,False,False,True,2,as,s,0.919144868850708,False
01,1,False,True,False,False,True,3,ss,s,1.897122859954834,True
01,1,False,True,False,False,True,4,as,k,0.5323848724365234,True
01,1,False,True,False,False,True,5,ss,s,0.41340088844299316,True
01,1,False,True,False,False,True,6,as,k,0.5241880416870117,True
01,1,False,True,False,False,True,7,ss,s,0.38239312171936035,True
01,1,False,True,False,False,True,8,ss,k,0.3737940788269043,False
01,1,False,True,False,False,True,9,ss,k,0.8618178367614746,False
01,1,False,True,False,False,True,10,ss,s,1.0025241374969482,True
01,1,False,True,False,False,True,11,ss,k,1.4650568962097168,False
01,1,False,True,False,False,True,12,as,s,0.6777610778808594,False
01,1,False,True,False,False,True,13,ss,s,0.8897571563720703,True
01,1,False,True,False,False,True,14,ss,s,1.133162021636963,True
01,1,False,True,False,False,True,15,ss,s,1.4464111328125,True
01,1,False,True,False,False,True,16,as,k,2.1478190422058105,True
01,1,False,True,False,False,True,17,as,s,0.7488830089569092,False
01,1,False,True,False,False,True,18,ss,k,0.5337769985198975,False
01,1,False,True,False,False,True,19,as,s,0.4391920566558838,False
01,1,False,True,False,False,True,20,as,s,2.5485260486602783,False
01,1,False,True,False,False,True,21,ss,k,0.35768795013427734,False
01,1,False,True,False,False,True,22,ss,s,2.830467939376831,True
01,1,False,True,False,False,True,23,ss,s,0.7883648872375488,True
01,1,False,True,False,False,True,24,ss,s,2.5316169261932373,True
01,1,False,True,False,False,True,25,ss,k,0.6536998748779297,False
01,1,False,True,False,False,True,26,ss,k,0.43443799018859863,False
01,1,False,True,False,False,True,27,ss,s,2.807776927947998,True
01,1,False,True,False,False,True,28,ss,s,1.2704110145568848,True
01,1,False,True,False,False,True,29,as,s,0.8264381885528564,False
01,1,False,True,False,False,True,30,ss,k,0.4242990016937256,False
01,1,False,True,False,False,True,31,ss,s,0.29442596435546875,True
01,1,False,True,False,False,True,32,as,s,0.45783495903015137,False
01,1,False,True,False,False,True,33,ss,k,0.6544291973114014,False
01,1,False,True,False,False,True,34,ss,s,0.6352219581604004,True
01,1,False,True,False,False,True,35,ss,s,0.7204880714416504,True
01,1,False,True,False,False,True,36,ss,s,4.226468086242676,True
01,1,False,True,False,False,True,37,as,s,2.4964709281921387,False
01,1,False,True,False,False,True,38,ss,k,0.7157771587371826,False
01,1,False,True,False,False,True,39,ss,s,0.38978099822998047,True
01,1,False,True,False,False,True,40,ss,s,0.509192943572998,True
01,2,False,True,True,False,False,1,ss,s,0.9405410289764404,True
01,2,False,True,True,False,False,2,av,k,1.173638105392456,True
01,2,False,True,True,False,False,3,ss,s,1.1258649826049805,True
01,2,False,True,True,False,False,4,ss,s,0.7355899810791016,True
01,2,False,True,True,False,False,5,ss,k,1.5292000770568848,False
01,2,False,True,True,False,False,6,ss,s,0.3710770606994629,True
01,2,False,True,True,False,False,7,ss,k,0.7631471157073975,False
01,2,False,True,True,False,False,8,ss,s,0.5157339572906494,True
01,2,False,True,True,False,False,9,ss,k,1.4857749938964844,False
01,2,False,True,True,False,False,10,ss,s,0.5932559967041016,True
01,2,False,True,True,False,False,11,ss,s,0.7764358520507812,True
01,2,False,True,True,False,False,12,ss,k,0.776439905166626,False
01,2,False,True,True,False,False,13,ss,s,0.39253997802734375,True
01,2,False,True,True,False,False,14,ss,s,0.6877951622009277,True
01,2,False,True,True,False,False,15,ss,s,0.587177038192749,True
01,2,False,True,True,False,False,16,ss,s,0.40251588821411133,True
01,2,False,True,True,False,False,17,av,s,0.3052339553833008,False
01,2,False,True,True,False,False,18,ss,s,1.0437748432159424,True
01,2,False,True,True,False,False,19,av,s,1.081178903579712,False
01,2,False,True,True,False,False,20,ss,s,0.6612231731414795,True
01,2,False,True,True,False,False,21,ss,k,0.4575779438018799,False
01,2,False,True,True,False,False,22,av,s,0.31043291091918945,False
01,2,False,True,True,False,False,23,ss,s,0.8412120342254639,True
01,2,False,True,True,False,False,24,ss,s,1.8063039779663086,True
01,2,False,True,True,False,False,25,av,k,0.5250570774078369,True
01,2,False,True,True,False,False,26,ss,s,0.38321590423583984,True
01,2,False,True,True,False,False,27,ss,s,0.2943689823150635,True
01,2,False,True,True,False,False,28,av,k,0.4657888412475586,True
01,2,False,True,True,False,False,29,ss,s,0.3255438804626465,True
01,2,False,True,True,False,False,30,ss,s,0.2557101249694824,True
01,2,False,True,True,False,False,31,ss,k,0.3324317932128906,False
01,2,False,True,True,False,False,32,ss,k,0.7015440464019775,False
01,2,False,True,True,False,False,33,ss,s,0.3444638252258301,True
01,2,False,True,True,False,False,34,ss,s,0.36977481842041016,True
01,2,False,True,True,False,False,35,av,s,0.793795108795166,False
01,2,False,True,True,False,False,36,ss,s,0.617236852645874,True
01,2,False,True,True,False,False,37,ss,s,0.23917293548583984,True
01,2,False,True,True,False,False,38,ss,s,0.24445891380310059,True
01,2,False,True,True,False,False,39,av,s,0.9698569774627686,False
01,2,False,True,True,False,False,40,av,s,0.33779096603393555,False
01,3,False,True,False,True,False,1,ss,s,1.0124640464782715,True
01,3,False,True,False,True,False,2,sv,s,0.6912610530853271,False
01,3,False,True,False,True,False,3,ss,s,1.078559160232544,True
01,3,False,True,False,True,False,4,ss,k,0.46637701988220215,False
01,3,False,True,False,True,False,5,sv,s,0.3904531002044678,False
01,3,False,True,False,True,False,6,ss,s,0.813546895980835,True
01,3,False,True,False,True,False,7,ss,k,0.39650797843933105,False
01,3,False,True,False,True,False,8,ss,s,0.41976499557495117,True
01,3,False,True,False,True,False,9,sv,k,0.6097779273986816,True
01,3,False,True,False,True,False,10,ss,s,0.43231797218322754,True
01,3,False,True,False,True,False,11,ss,s,0.3657691478729248,True
01,3,False,True,False,True,False,12,ss,k,0.45382094383239746,False
01,3,False,True,False,True,False,13,ss,k,0.47451019287109375,False
01,3,False,True,False,True,False,14,sv,k,0.3904290199279785,True
01,3,False,True,False,True,False,15,ss,s,0.3897387981414795,True
01,3,False,True,False,True,False,16,sv,s,0.29319190979003906,False
01,3,False,True,False,True,False,17,ss,s,0.8484799861907959,True
01,3,False,True,False,True,False,18,sv,s,1.3098151683807373,False
01,3,False,True,False,True,False,19,ss,s,0.6725029945373535,True
01,3,False,True,False,True,False,20,ss,s,1.4523499011993408,True
01,3,False,True,False,True,False,21,sv,k,0.45717501640319824,True
01,3,False,True,False,True,False,22,ss,s,0.549717903137207,True
01,3,False,True,False,True,False,23,sv,s,0.48641085624694824,False
01,3,False,True,False,True,False,24,sv,s,0.785742998123169,False
01,3,False,True,False,True,False,25,ss,s,1.2171509265899658,True
01,3,False,True,False,True,False,26,sv,s,0.7429161071777344,False
01,3,False,True,False,True,False,27,ss,s,0.7922780513763428,True
01,3,False,True,False,True,False,28,sv,k,0.5357699394226074,True
01,3,False,True,False,True,False,29,ss,s,0.5851991176605225,True
01,3,False,True,False,True,False,30,sv,k,0.4164459705352783,True
01,3,False,True,False,True,False,31,ss,s,0.5665240287780762,True
01,3,False,True,False,True,False,32,ss,k,0.43825697898864746,False
01,3,False,True,False,True,False,33,ss,k,0.4437539577484131,False
01,3,False,True,False,True,False,34,ss,s,0.34519100189208984,True
01,3,False,True,False,True,False,35,sv,k,1.0822639465332031,True
01,3,False,True,False,True,False,36,ss,s,0.6057529449462891,True
01,3,False,True,False,True,False,37,ss,s,0.4844970703125,True
01,3,False,True,False,True,False,38,sv,k,0.9755170345306396,True
01,3,False,True,False,True,False,39,ss,s,0.33585691452026367,True
01,3,False,True,False,True,False,40,ss,s,0.4011991024017334,True
01,4,False,True,True,False,False,1,av,s,1.0857889652252197,False
01,4,False,True,True,False,False,2,ss,s,0.5051219463348389,True
01,4,False,True,True,False,False,3,av,k,0.3478689193725586,True
01,4,False,True,True,False,False,4,av,s,0.4212222099304199,False
01,4,False,True,True,False,False,5,ss,k,0.5632240772247314,False
01,4,False,True,True,False,False,6,ss,s,1.1798360347747803,True
01,4,False,True,True,False,False,7,ss,k,0.46785616874694824,False
01,4,False,True,True,False,False,8,ss,k,0.7277541160583496,False
01,4,False,True,True,False,False,9,ss,s,0.3776209354400635,True
01,4,False,True,True,False,False,10,ss,s,0.5217368602752686,True
01,4,False,True,True,False,False,11,ss,k,0.4917569160461426,False
01,4,False,True,True,False,False,12,ss,s,0.35918498039245605,True
01,4,False,True,True,False,False,13,ss,s,0.5598101615905762,True
01,4,False,True,True,False,False,14,ss,k,0.5685150623321533,False
01,4,False,True,True,False,False,15,ss,s,0.40834999084472656,True
01,4,False,True,True,False,False,16,av,s,0.4872140884399414,False
01,4,False,True,True,False,False,17,ss,s,0.8344080448150635,True
01,4,False,True,True,False,False,18,ss,s,0.3435359001159668,True
01,4,False,True,True,False,False,19,ss,s,0.5051820278167725,True
01,4,False,True,True,False,False,20,ss,s,2.7077720165252686,True
01,4,False,True,True,False,False,21,av,s,0.7345139980316162,False
01,4,False,True,True,False,False,22,av,s,0.3357119560241699,False
01,4,False,True,True,False,False,23,ss,s,0.7369508743286133,True
01,4,False,True,True,False,False,24,ss,s,0.41027212142944336,True
01,4,False,True,True,False,False,25,ss,s,0.3132328987121582,True
01,4,False,True,True,False,False,26,ss,s,0.4837470054626465,True
01,4,False,True,True,False,False,27,av,s,1.095445156097412,False
01,4,False,True,True,False,False,28,ss,s,0.35440492630004883,True
01,4,False,True,True,False,False,29,ss,s,0.0751957893371582,True
01,4,False,True,True,False,False,30,ss,s,0.3352229595184326,True
01,4,False,True,True,False,False,31,ss,k,0.36824798583984375,False
01,4,False,True,True,False,False,32,av,s,0.5286040306091309,False
01,4,False,True,True,False,False,33,ss,s,1.4502661228179932,True
01,4,False,True,True,False,False,34,ss,s,0.2872660160064697,True
01,4,False,True,True,False,False,35,av,s,0.30640602111816406,False
01,4,False,True,True,False,False,36,ss,s,0.3892068862915039,True
01,4,False,True,True,False,False,37,ss,k,0.276447057723999,False
01,4,False,True,True,False,False,38,ss,s,0.2724440097808838,True
01,4,False,True,True,False,False,39,av,k,0.3084580898284912,True
01,4,False,True,True,False,False,40,av,s,0.6952698230743408,False
01,5,False,True,False,False,True,1,ss,s,3.921066999435425,True
01,5,False,True,False,False,True,2,as,k,0.7472331523895264,True
01,5,False,True,False,False,True,3,ss,s,0.4524059295654297,True
01,5,False,True,False,False,True,4,as,s,1.4331908226013184,False
01,5,False,True,False,False,True,5,ss,s,0.3745279312133789,True
01,5,False,True,False,False,True,6,ss,k,0.5185539722442627,False
01,5,False,True,False,False,True,7,ss,k,0.7843890190124512,False
01,5,False,True,False,False,True,8,ss,s,0.407804012298584,True
01,5,False,True,False,False,True,9,as,k,0.4702301025390625,True
01,5,False,True,False,False,True,10,ss,s,0.33023595809936523,True
01,5,False,True,False,False,True,11,as,s,0.3485569953918457,False
01,5,False,True,False,False,True,12,ss,s,0.9019160270690918,True
01,5,False,True,False,False,True,13,ss,s,0.29655003547668457,True
01,5,False,True,False,False,True,14,ss,s,0.33184313774108887,True
01,5,False,True,False,False,True,15,ss,k,0.36582303047180176,False
01,5,False,True,False,False,True,16,as,k,0.5578179359436035,True
01,5,False,True,False,False,True,17,ss,s,0.34232115745544434,True
01,5,False,True,False,False,True,18,ss,k,0.3677990436553955,False
01,5,False,True,False,False,True,19,ss,k,0.47182679176330566,False
01,5,False,True,False,False,True,20,as,s,0.5638549327850342,False
01,5,False,True,False,False,True,21,ss,s,1.7642550468444824,True
01,5,False,True,False,False,True,22,as,s,0.3248929977416992,False
01,5,False,True,False,False,True,23,as,s,1.127140998840332,False
01,5,False,True,False,False,True,24,ss,s,1.4411749839782715,True
01,5,False,True,False,False,True,25,ss,s,0.42242884635925293,True
01,5,False,True,False,False,True,26,ss,k,1.25246000289917,False
01,5,False,True,False,False,True,27,as,k,0.45729804039001465,True
01,5,False,True,False,False,True,28,ss,s,0.5899279117584229,True
01,5,False,True,False,False,True,29,ss,s,0.5812768936157227,True
01,5,False,True,False,False,True,30,ss,s,0.8451728820800781,True
01,5,False,True,False,False,True,31,ss,k,0.6584808826446533,False
01,5,False,True,False,False,True,32,ss,s,0.5191540718078613,True
01,5,False,True,False,False,True,33,ss,k,0.4891049861907959,False
01,5,False,True,False,False,True,34,as,k,0.5006058216094971,True
01,5,False,True,False,False,True,35,ss,k,0.5912179946899414,False
01,5,False,True,False,False,True,36,ss,s,0.15857791900634766,True
01,5,False,True,False,False,True,37,ss,s,0.5111768245697021,True
01,5,False,True,False,False,True,38,ss,s,0.3778359889984131,True
01,5,False,True,False,False,True,39,ss,s,0.5698840618133545,True
01,5,False,True,False,False,True,40,as,k,0.5298290252685547,True
01,6,False,True,False,True,False,1,sv,s,1.1978199481964111,False
01,6,False,True,False,True,False,2,ss,s,1.0610480308532715,True
01,6,False,True,False,True,False,3,ss,k,0.6818490028381348,False
01,6,False,True,False,True,False,4,sv,s,0.4299330711364746,False
01,6,False,True,False,True,False,5,ss,s,2.283839225769043,True
01,6,False,True,False,True,False,6,ss,s,1.079284906387329,True
01,6,False,True,False,True,False,7,ss,k,0.4431750774383545,False
01,6,False,True,False,True,False,8,ss,k,0.40857481956481934,False
01,6,False,True,False,True,False,9,ss,k,0.9029290676116943,False
01,6,False,True,False,True,False,10,sv,s,0.849794864654541,False
01,6,False,True,False,True,False,11,ss,s,2.12626314163208,True
01,6,False,True,False,True,False,12,ss,s,1.0085179805755615,True
01,6,False,True,False,True,False,13,sv,s,0.7191891670227051,False
01,6,False,True,False,True,False,14,ss,s,0.617056131362915,True
01,6,False,True,False,True,False,15,ss,s,0.36696314811706543,True
01,6,False,True,False,True,False,16,ss,k,0.45497894287109375,False
01,6,False,True,False,True,False,17,ss,k,0.5238440036773682,False
01,6,False,True,False,True,False,18,ss,k,0.461575984954834,False
01,6,False,True,False,True,False,19,ss,s,0.6824390888214111,True
01,6,False,True,False,True,False,20,sv,s,1.397871971130371,False
01,6,False,True,False,True,False,21,ss,s,2.3171780109405518,True
01,6,False,True,False,True,False,22,ss,s,0.551171064376831,True
01,6,False,True,False,True,False,23,sv,s,1.7918541431427002,False
01,6,False,True,False,True,False,24,ss,s,0.8713030815124512,True
01,6,False,True,False,True,False,25,sv,s,0.6431548595428467,False
01,6,False,True,False,True,False,26,ss,k,0.800616979598999,False
01,6,False,True,False,True,False,27,sv,s,0.44727492332458496,False
01,6,False,True,False,True,False,28,ss,k,1.1406168937683105,False
01,6,False,True,False,True,False,29,sv,s,0.33384203910827637,False
01,6,False,True,False,True,False,30,ss,s,1.4391491413116455,True
01,6,False,True,False,True,False,31,ss,k,0.44463682174682617,False
01,6,False,True,False,True,False,32,ss,k,0.497852087020874,False
01,6,False,True,False,True,False,33,ss,s,0.46120786666870117,True
01,6,False,True,False,True,False,34,ss,k,0.3858809471130371,False
01,6,False,True,False,True,False,35,ss,k,0.33721303939819336,False
01,6,False,True,False,True,False,36,ss,s,0.3785529136657715,True
01,6,False,True,False,True,False,37,ss,k,0.8024649620056152,False
01,6,False,True,False,True,False,38,ss,k,0.4732382297515869,False
01,6,False,True,False,True,False,39,ss,s,0.4291071891784668,True
01,6,False,True,False,True,False,40,sv,s,0.4911229610443115,False
01,7,True,False,False,True,False,1,ss,s,0.9589440822601318,True
01,7,True,False,False,True,False,2,ss,k,0.5758950710296631,False
01,7,True,False,False,True,False,3,ss,s,0.9358029365539551,True
01,7,True,False,False,True,False,4,sv,k,0.497114896774292,True
01,7,True,False,False,True,False,5,ss,s,0.7084009647369385,True
01,7,True,False,False,True,False,6,ss,s,0.31906604766845703,True
01,7,True,False,False,True,False,7,sv,s,0.36121702194213867,False
01,7,True,False,False,True,False,8,ss,s,0.7058501243591309,True
01,7,True,False,False,True,False,9,ss,k,0.9404590129852295,False
01,7,True,False,False,True,False,10,ss,s,0.6457569599151611,True
01,7,True,False,False,True,False,11,ss,k,0.4592299461364746,False
01,7,True,False,False,True,False,12,sv,k,1.1037979125976562,True
01,7,True,False,False,True,False,13,ss,s,0.3785409927368164,True
01,7,True,False,False,True,False,14,sv,s,0.3062429428100586,False
01,7,True,False,False,True,False,15,ss,s,1.1726040840148926,True
01,7,True,False,False,True,False,16,sv,k,0.3572249412536621,True
01,7,True,False,False,True,False,17,ss,s,0.3417990207672119,True
01,7,True,False,False,True,False,18,ss,s,0.4872410297393799,True
01,7,True,False,False,True,False,19,ss,k,0.5864429473876953,False
01,7,True,False,False,True,False,20,ss,s,1.505821943283081,True
01,7,True,False,False,True,False,21,sv,k,0.668328046798706,True
01,7,True,False,False,True,False,22,ss,s,0.6644558906555176,True
01,7,True,False,False,True,False,23,ss,s,0.7487728595733643,True
01,7,True,False,False,True,False,24,sv,k,0.46989989280700684,True
01,7,True,False,False,True,False,25,ss,s,0.4017629623413086,True
01,7,True,False,False,True,False,26,ss,s,0.36846494674682617,True
01,7,True,False,False,True,False,27,ss,s,0.3685758113861084,True
01,7,True,False,False,True,False,28,ss,k,0.44059300422668457,False
01,7,True,False,False,True,False,29,sv,k,0.35785603523254395,True
01,7,True,False,False,True,False,30,ss,s,0.41448116302490234,True
01,7,True,False,False,True,False,31,ss,s,0.3972289562225342,True
01,7,True,False,False,True,False,32,ss,k,0.3882291316986084,False
01,7,True,False,False,True,False,33,ss,k,0.40383195877075195,False
01,7,True,False,False,True,False,34,sv,k,0.5144529342651367,True
01,7,True,False,False,True,False,35,ss,s,0.5409579277038574,True
01,7,True,False,False,True,False,36,ss,s,0.4384770393371582,True
01,7,True,False,False,True,False,37,sv,s,1.2518889904022217,False
01,7,True,False,False,True,False,38,ss,s,0.7125768661499023,True
01,7,True,False,False,True,False,39,ss,s,0.2752859592437744,True
01,7,True,False,False,True,False,40,ss,s,1.487246036529541,True
01,8,True,False,False,False,True,1,as,s,1.2443079948425293,False
01,8,True,False,False,False,True,2,as,s,0.6418600082397461,False
01,8,True,False,False,False,True,3,ss,s,0.47107791900634766,True
01,8,True,False,False,False,True,4,ss,s,0.5151209831237793,True
01,8,True,False,False,False,True,5,ss,k,2.061836004257202,False
01,8,True,False,False,False,True,6,ss,s,0.4504430294036865,True
01,8,True,False,False,False,True,7,as,k,0.4073059558868408,True
01,8,True,False,False,False,True,8,ss,k,0.4699268341064453,False
01,8,True,False,False,False,True,9,ss,s,0.3299570083618164,True
01,8,True,False,False,False,True,10,ss,k,1.4118249416351318,False
01,8,True,False,False,False,True,11,ss,s,0.8505592346191406,True
01,8,True,False,False,False,True,12,as,k,0.5111398696899414,True
01,8,True,False,False,False,True,13,ss,s,0.8338930606842041,True
01,8,True,False,False,False,True,14,ss,s,0.4150660037994385,True
01,8,True,False,False,False,True,15,ss,s,0.5976090431213379,True
01,8,True,False,False,False,True,16,ss,k,0.5411081314086914,False
01,8,True,False,False,False,True,17,ss,k,0.4144778251647949,False
01,8,True,False,False,False,True,18,as,k,0.5012350082397461,True
01,8,True,False,False,False,True,19,ss,s,0.44793009757995605,True
01,8,True,False,False,False,True,20,ss,s,0.10928702354431152,True
01,8,True,False,False,False,True,21,as,s,0.3518359661102295,False
01,8,True,False,False,False,True,22,ss,s,1.0404820442199707,True
01,8,True,False,False,False,True,23,ss,s,0.3819010257720947,True
01,8,True,False,False,False,True,24,ss,s,0.4138832092285156,True
01,8,True,False,False,False,True,25,ss,k,0.4042398929595947,False
01,8,True,False,False,False,True,26,as,k,0.5392289161682129,True
01,8,True,False,False,False,True,27,ss,s,0.3405640125274658,True
01,8,True,False,False,False,True,28,ss,s,0.333859920501709,True
01,8,True,False,False,False,True,29,ss,s,0.8951890468597412,True
01,8,True,False,False,False,True,30,as,k,0.4664888381958008,True
01,8,True,False,False,False,True,31,ss,s,0.48625993728637695,True
01,8,True,False,False,False,True,32,ss,s,0.37790393829345703,True
01,8,True,False,False,False,True,33,ss,s,0.23389792442321777,True
01,8,True,False,False,False,True,34,as,s,0.4231891632080078,False
01,8,True,False,False,False,True,35,ss,s,0.3652188777923584,True
01,8,True,False,False,False,True,36,ss,s,0.26187682151794434,True
01,8,True,False,False,False,True,37,as,s,0.25049805641174316,False
01,8,True,False,False,False,True,38,ss,s,0.8711380958557129,True
01,8,True,False,False,False,True,39,ss,s,0.21092796325683594,True
01,8,True,False,False,False,True,40,ss,s,0.4499189853668213,True
01,9,True,False,True,False,False,1,ss,s,1.9639978408813477,True
01,9,True,False,True,False,False,2,ss,k,1.03643798828125,False
01,9,True,False,True,False,False,3,av,s,0.7137479782104492,False
01,9,True,False,True,False,False,4,ss,s,1.3324761390686035,True
01,9,True,False,True,False,False,5,ss,s,0.6138670444488525,True
01,9,True,False,True,False,False,6,ss,k,0.5566089153289795,False
01,9,True,False,True,False,False,7,av,k,0.45314502716064453,True
01,9,True,False,True,False,False,8,ss,s,0.585853099822998,True
01,9,True,False,True,False,False,9,av,s,0.35312485694885254,False
01,9,True,False,True,False,False,10,ss,s,1.0978538990020752,True
01,9,True,False,True,False,False,11,ss,k,0.757174015045166,False
01,9,True,False,True,False,False,12,ss,s,0.4378790855407715,True
01,9,True,False,True,False,False,13,ss,k,0.6031539440155029,False
01,9,True,False,True,False,False,14,ss,s,0.4179089069366455,True
01,9,True,False,True,False,False,15,ss,k,0.46388912200927734,False
01,9,True,False,True,False,False,16,av,k,0.47623395919799805,True
01,9,True,False,True,False,False,17,ss,s,0.47248196601867676,True
01,9,True,False,True,False,False,18,ss,s,0.46056199073791504,True
01,9,True,False,True,False,False,19,ss,k,1.4891979694366455,False
01,9,True,False,True,False,False,20,ss,k,0.6045010089874268,False
01,9,True,False,True,False,False,21,av,k,0.37113499641418457,True
01,9,True,False,True,False,False,22,ss,s,0.3792610168457031,True
01,9,True,False,True,False,False,23,ss,s,0.21924090385437012,True
01,9,True,False,True,False,False,24,av,s,0.2651479244232178,False
01,9,True,False,True,False,False,25,av,s,1.2619290351867676,False
01,9,True,False,True,False,False,26,ss,k,0.7625360488891602,False
01,9,True,False,True,False,False,27,av,s,0.3312549591064453,False
01,9,True,False,True,False,False,28,av,s,1.1408820152282715,False
01,9,True,False,True,False,False,29,ss,s,1.5425500869750977,True
01,9,True,False,True,False,False,30,av,k,0.3679630756378174,True
01,9,True,False,True,False,False,31,ss,k,0.44786906242370605,False
01,9,True,False,True,False,False,32,ss,s,0.49323201179504395,True
01,9,True,False,True,False,False,33,ss,k,1.2804899215698242,False
01,9,True,False,True,False,False,34,ss,s,0.3885030746459961,True
01,9,True,False,True,False,False,35,av,k,0.9558930397033691,True
01,9,True,False,True,False,False,36,av,k,0.5885059833526611,True
01,9,True,False,True,False,False,37,ss,s,0.8596930503845215,True
01,9,True,False,True,False,False,38,ss,s,0.3285188674926758,True
01,9,True,False,True,False,False,39,av,s,0.5465779304504395,False
01,9,True,False,True,False,False,40,ss,k,0.3799009323120117,False
01,10,True,False,False,True,False,1,ss,s,1.1952321529388428,True
01,10,True,False,False,True,False,2,ss,s,1.2104840278625488,True
01,10,True,False,False,True,False,3,ss,s,0.8251800537109375,True
01,10,True,False,False,True,False,4,sv,s,1.2950878143310547,False
01,10,True,False,False,True,False,5,ss,s,0.6504318714141846,True
01,10,True,False,False,True,False,6,ss,s,0.5112311840057373,True
01,10,True,False,False,True,False,7,ss,s,0.649932861328125,True
01,10,True,False,False,True,False,8,ss,k,0.41426992416381836,False
01,10,True,False,False,True,False,9,sv,k,0.8371469974517822,True
01,10,True,False,False,True,False,10,ss,s,0.5705270767211914,True
01,10,True,False,False,True,False,11,ss,s,0.4825170040130615,True
01,10,True,False,False,True,False,12,ss,s,0.7818710803985596,True
01,10,True,False,False,True,False,13,sv,s,0.6939561367034912,False
01,10,True,False,False,True,False,14,ss,s,0.6491739749908447,True
01,10,True,False,False,True,False,15,ss,s,0.38994383811950684,True
01,10,True,False,False,True,False,16,sv,s,0.3891561031341553,False
01,10,True,False,False,True,False,17,ss,s,0.6124889850616455,True
01,10,True,False,False,True,False,18,ss,s,0.3391690254211426,True
01,10,True,False,False,True,False,19,ss,s,0.39650702476501465,True
01,10,True,False,False,True,False,20,sv,k,0.3319559097290039,True
01,10,True,False,False,True,False,21,sv,s,0.34193992614746094,False
01,10,True,False,False,True,False,22,ss,s,0.8871669769287109,True
01,10,True,False,False,True,False,23,ss,s,1.5546109676361084,True
01,10,True,False,False,True,False,24,ss,k,0.7551839351654053,False
01,10,True,False,False,True,False,25,sv,k,0.3559579849243164,True
01,10,True,False,False,True,False,26,ss,s,0.5564708709716797,True
01,10,True,False,False,True,False,27,sv,s,0.5169811248779297,False
01,10,True,False,False,True,False,28,ss,s,0.82315993309021,True
01,10,True,False,False,True,False,29,ss,s,0.5971190929412842,True
01,10,True,False,False,True,False,30,sv,s,0.4765000343322754,False
01,10,True,False,False,True,False,31,ss,s,0.9205009937286377,True
01,10,True,False,False,True,False,32,ss,s,0.618520975112915,True
01,10,True,False,False,True,False,33,ss,s,0.8402800559997559,True
01,10,True,False,False,True,False,34,sv,k,0.49393796920776367,True
01,10,True,False,False,True,False,35,ss,k,0.3931741714477539,False
01,10,True,False,False,True,False,36,ss,s,0.6885030269622803,True
01,10,True,False,False,True,False,37,ss,s,1.4757189750671387,True
01,10,True,False,False,True,False,38,ss,k,0.9997169971466064,False
01,10,True,False,False,True,False,39,sv,k,0.8705987930297852,True
01,10,True,False,False,True,False,40,ss,k,0.6105070114135742,False
01,11,True,False,True,False,False,1,ss,s,0.8698811531066895,True
01,11,True,False,True,False,False,2,ss,s,0.5539698600769043,True
01,11,True,False,True,False,False,3,ss,k,0.7784698009490967,False
01,11,True,False,True,False,False,4,av,s,0.6265079975128174,False
01,11,True,False,True,False,False,5,ss,s,0.40852904319763184,True
01,11,True,False,True,False,False,6,av,s,0.5991671085357666,False
01,11,True,False,True,False,False,7,ss,s,0.5259320735931396,True
01,11,True,False,True,False,False,8,ss,k,0.4399759769439697,False
01,11,True,False,True,False,False,9,av,k,1.485166072845459,True
01,11,True,False,True,False,False,10,ss,s,0.38452887535095215,True
01,11,True,False,True,False,False,11,ss,s,2.567995071411133,True
01,11,True,False,True,False,False,12,ss,k,0.4639308452606201,False
01,11,True,False,True,False,False,13,av,k,0.4604530334472656,True
01,11,True,False,True,False,False,14,ss,s,0.5212628841400146,True
01,11,True,False,True,False,False,15,ss,s,0.6191298961639404,True
01,11,True,False,True,False,False,16,ss,k,0.5452420711517334,False
01,11,True,False,True,False,False,17,av,k,0.45059800148010254,True
01,11,True,False,True,False,False,18,ss,s,0.3512730598449707,True
01,11,True,False,True,False,False,19,av,s,0.39194703102111816,False
01,11,True,False,True,False,False,20,ss,s,1.1269738674163818,True
01,11,True,False,True,False,False,21,ss,s,0.568976879119873,True
01,11,True,False,True,False,False,22,ss,s,0.5131769180297852,True
01,11,True,False,True,False,False,23,av,k,0.5237038135528564,True
01,11,True,False,True,False,False,24,ss,s,0.4299468994140625,True
01,11,True,False,True,False,False,25,av,s,0.41170716285705566,False
01,11,True,False,True,False,False,26,ss,s,0.5066399574279785,True
01,11,True,False,True,False,False,27,ss,s,0.3811509609222412,True
01,11,True,False,True,False,False,28,ss,k,0.38910388946533203,False
01,11,True,False,True,False,False,29,ss,k,0.3805091381072998,False
01,11,True,False,True,False,False,30,av,k,0.6285429000854492,True
01,11,True,False,True,False,False,31,av,s,0.6105268001556396,False
01,11,True,False,True,False,False,32,ss,s,0.8491649627685547,True
01,11,True,False,True,False,False,33,ss,s,0.47794389724731445,True
01,11,True,False,True,False,False,34,av,s,0.7699489593505859,False
01,11,True,False,True,False,False,35,ss,s,0.6659190654754639,True
01,11,True,False,True,False,False,36,ss,s,0.38192296028137207,True
01,11,True,False,True,False,False,37,av,k,0.4219529628753662,True
01,11,True,False,True,False,False,38,av,s,0.5799620151519775,False
01,11,True,False,True,False,False,39,ss,s,1.3158941268920898,True
01,11,True,False,True,False,False,40,ss,s,0.3898940086364746,True
01,12,True,False,False,False,True,1,ss,s,1.0032129287719727,True
01,12,True,False,False,False,True,2,as,s,0.6418399810791016,False
01,12,True,False,False,False,True,3,ss,s,1.015286922454834,True
01,12,True,False,False,False,True,4,ss,s,0.8857829570770264,True
01,12,True,False,False,False,True,5,ss,k,0.5211238861083984,False
01,12,True,False,False,False,True,6,ss,k,0.579308032989502,False
01,12,True,False,False,False,True,7,as,s,0.54693603515625,False
01,12,True,False,False,False,True,8,as,s,0.7004349231719971,False
01,12,True,False,False,False,True,9,ss,s,1.1351978778839111,True
01,12,True,False,False,False,True,10,ss,s,0.4083058834075928,True
01,12,True,False,False,False,True,11,ss,s,2.054921865463257,True
01,12,True,False,False,False,True,12,ss,k,0.5399599075317383,False
01,12,True,False,False,False,True,13,as,k,0.6769750118255615,True
01,12,True,False,False,False,True,14,ss,k,0.5851819515228271,False
01,12,True,False,False,False,True,15,ss,s,0.5765330791473389,True
01,12,True,False,False,False,True,16,ss,s,0.5125420093536377,True
01,12,True,False,False,False,True,17,as,k,0.7951760292053223,True
01,12,True,False,False,False,True,18,ss,k,0.5305600166320801,False
01,12,True,False,False,False,True,19,as,s,0.6525518894195557,False
01,12,True,False,False,False,True,20,ss,s,1.1609299182891846,True
01,12,True,False,False,False,True,21,ss,s,0.601733922958374,True
01,12,True,False,False,False,True,22,ss,k,0.5925500392913818,False
01,12,True,False,False,False,True,23,ss,k,0.5519258975982666,False
01,12,True,False,False,False,True,24,ss,k,0.712562084197998,False
01,12,True,False,False,False,True,25,as,s,0.4189729690551758,False
01,12,True,False,False,False,True,26,ss,s,1.7929701805114746,True
01,12,True,False,False,False,True,27,ss,k,0.6006009578704834,False
01,12,True,False,False,False,True,28,ss,s,0.3991110324859619,True
01,12,True,False,False,False,True,29,ss,k,0.8619520664215088,False
01,12,True,False,False,False,True,30,ss,k,1.5385289192199707,False
01,12,True,False,False,False,True,31,ss,s,0.38797616958618164,True
01,12,True,False,False,False,True,32,as,s,1.0033190250396729,False
01,12,True,False,False,False,True,33,ss,s,2.313922166824341,True
01,12,True,False,False,False,True,34,ss,s,2.1244618892669678,True
01,12,True,False,False,False,True,35,ss,k,0.8863470554351807,False
01,12,True,False,False,False,True,36,ss,s,0.5937821865081787,True
01,12,True,False,False,False,True,37,as,k,0.4569740295410156,True
01,12,True,False,False,False,True,38,ss,s,0.5499539375305176,True
01,12,True,False,False,False,True,39,ss,k,0.5184972286224365,False
01,12,True,False,False,False,True,40,ss,s,0.3925819396972656,True
01,13,True,False,True,True,True,1,ss,s,0.8052639961242676,True
01,13,True,False,True,True,True,2,as,s,1.2040081024169922,False
01,13,True,False,True,True,True,3,ss,s,0.4745478630065918,True
01,13,True,False,True,True,True,4,ss,k,0.40662503242492676,False
01,13,True,False,True,True,True,5,ss,k,0.4293200969696045,False
01,13,True,False,True,True,True,6,sv,s,0.33921194076538086,False
01,13,True,False,True,True,True,7,ss,s,2.21244215965271,True
01,13,True,False,True,True,True,8,ss,k,0.8830361366271973,False
01,13,True,False,True,True,True,9,sv,s,0.5024271011352539,False
01,13,True,False,True,True,True,10,ss,s,1.1611838340759277,True
01,13,True,False,True,True,True,11,ss,k,0.4259328842163086,False
01,13,True,False,True,True,True,12,av,k,0.43999385833740234,True
01,13,True,False,True,True,True,13,ss,s,0.6293280124664307,True
01,13,True,False,True,True,True,14,ss,s,4.067179918289185,True
01,13,True,False,True,True,True,15,ss,k,0.5191998481750488,False
01,13,True,False,True,True,True,16,av,k,0.3851139545440674,True
01,13,True,False,True,True,True,17,av,s,0.39261603355407715,False
01,13,True,False,True,True,True,18,ss,s,0.9759459495544434,True
01,13,True,False,True,True,True,19,ss,s,0.8399178981781006,True
01,13,True,False,True,True,True,20,ss,k,0.5969789028167725,False
01,13,True,False,True,True,True,21,ss,k,0.37264513969421387,False
01,13,True,False,True,True,True,22,sv,k,1.2125818729400635,True
01,13,True,False,True,True,True,23,ss,s,0.6991968154907227,True
01,13,True,False,True,True,True,24,sv,s,1.0059099197387695,False
01,13,True,False,True,True,True,25,sv,s,1.0845839977264404,False
01,13,True,False,True,True,True,26,ss,s,0.6558780670166016,True
01,13,True,False,True,True,True,27,ss,k,0.4605240821838379,False
01,13,True,False,True,True,True,28,ss,s,0.6091749668121338,True
01,13,True,False,True,True,True,29,ss,k,0.519899845123291,False
01,13,True,False,True,True,True,30,sv,k,0.5859670639038086,True
01,13,True,False,True,True,True,31,ss,s,0.6252961158752441,True
01,13,True,False,True,True,True,32,ss,s,3.934957981109619,True
01,13,True,False,True,True,True,33,ss,k,1.880418062210083,False
01,13,True,False,True,True,True,34,ss,k,0.6365678310394287,False
01,13,True,False,True,True,True,35,ss,s,0.39394402503967285,True
01,13,True,False,True,True,True,36,ss,s,0.609246015548706,True
01,13,True,False,True,True,True,37,sv,k,0.4638690948486328,True
01,13,True,False,True,True,True,38,ss,s,0.6366100311279297,True
01,13,True,False,True,True,True,39,ss,s,0.6979880332946777,True
01,13,True,False,True,True,True,40,ss,s,0.796860933303833,True
01,14,False,True,True,True,True,1,ss,s,2.4861209392547607,True
01,14,False,True,True,True,True,2,sv,s,0.7131900787353516,False
01,14,False,True,True,True,True,3,ss,k,1.8119409084320068,False
01,14,False,True,True,True,True,4,as,s,0.4906032085418701,False
01,14,False,True,True,True,True,5,ss,s,0.9818849563598633,True
01,14,False,True,True,True,True,6,as,k,0.5338490009307861,True
01,14,False,True,True,True,True,7,as,s,0.39920496940612793,False
01,14,False,True,True,True,True,8,ss,s,0.5018680095672607,True
01,14,False,True,True,True,True,9,ss,s,0.912315845489502,True
01,14,False,True,True,True,True,10,as,k,0.7231462001800537,True
01,14,False,True,True,True,True,11,ss,s,0.7812149524688721,True
01,14,False,True,True,True,True,12,sv,s,0.4449911117553711,False
01,14,False,True,True,True,True,13,sv,s,1.49857497215271,False
01,14,False,True,True,True,True,14,ss,s,0.4612247943878174,True
01,14,False,True,True,True,True,15,ss,k,0.5298969745635986,False
01,14,False,True,True,True,True,16,as,s,0.5159578323364258,False
01,14,False,True,True,True,True,17,ss,s,3.9418771266937256,True
01,14,False,True,True,True,True,18,ss,k,2.43117094039917,False
01,14,False,True,True,True,True,19,ss,s,0.437359094619751,True
01,14,False,True,True,True,True,20,as,k,1.098633050918579,True
01,14,False,True,True,True,True,21,ss,k,0.5257840156555176,False
01,14,False,True,True,True,True,22,ss,s,0.3599050045013428,True
01,14,False,True,True,True,True,23,as,k,0.42450690269470215,True
01,14,False,True,True,True,True,24,ss,s,0.39859509468078613,True
01,14,False,True,True,True,True,25,ss,s,0.7817909717559814,True
01,14,False,True,True,True,True,26,sv,k,0.4699280261993408,True
01,14,False,True,True,True,True,27,ss,s,0.7616829872131348,True
01,14,False,True,True,True,True,28,ss,s,0.49042201042175293,True
01,14,False,True,True,True,True,29,av,k,0.4539189338684082,True
01,14,False,True,True,True,True,30,ss,s,0.7226309776306152,True
01,14,False,True,True,True,True,31,ss,s,0.3726949691772461,True
01,14,False,True,True,True,True,32,ss,k,0.372636079788208,False
01,14,False,True,True,True,True,33,ss,k,0.3966248035430908,False
01,14,False,True,True,True,True,34,ss,s,0.5559220314025879,True
01,14,False,True,True,True,True,35,av,k,0.5885469913482666,True
01,14,False,True,True,True,True,36,ss,s,0.6359140872955322,True
01,14,False,True,True,True,True,37,sv,s,0.3771941661834717,False
01,14,False,True,True,True,True,38,ss,s,0.657135009765625,True
01,14,False,True,True,True,True,39,ss,k,0.5658919811248779,False
01,14,False,True,True,True,True,40,as,s,0.3660111427307129,False
01,15,True,False,True,True,True,1,ss,s,3.463418960571289,True
01,15,True,False,True,True,True,2,ss,k,0.42788004875183105,False
01,15,True,False,True,True,True,3,ss,k,0.42571210861206055,False
01,15,True,False,True,True,True,4,av,s,0.10401606559753418,False
01,15,True,False,True,True,True,5,ss,s,1.4264039993286133,True
01,15,True,False,True,True,True,6,sv,s,0.42459583282470703,False
01,15,True,False,True,True,True,7,ss,s,0.5826690196990967,True
01,15,True,False,True,True,True,8,ss,k,1.3980181217193604,False
01,15,True,False,True,True,True,9,ss,s,0.39697885513305664,True
01,15,True,False,True,True,True,10,sv,s,0.9086060523986816,False
01,15,True,False,True,True,True,11,ss,s,0.5351500511169434,True
01,15,True,False,True,True,True,12,ss,s,0.3765549659729004,True
01,15,True,False,True,True,True,13,ss,s,0.5366289615631104,True
01,15,True,False,True,True,True,14,av,k,0.49790120124816895,True
01,15,True,False,True,True,True,15,av,s,0.38127994537353516,False
01,15,True,False,True,True,True,16,ss,s,1.6532738208770752,True
01,15,True,False,True,True,True,17,ss,s,0.3939249515533447,True
01,15,True,False,True,True,True,18,as,s,1.2011959552764893,False
01,15,True,False,True,True,True,19,ss,s,0.4559669494628906,True
01,15,True,False,True,True,True,20,ss,s,0.4766230583190918,True
01,15,True,False,True,True,True,21,ss,s,0.5526728630065918,True
01,15,True,False,True,True,True,22,sv,k,0.27315187454223633,True
01,15,True,False,True,True,True,23,ss,s,0.5969362258911133,True
01,15,True,False,True,True,True,24,ss,s,0.32460808753967285,True
01,15,True,False,True,True,True,25,ss,s,0.6624369621276855,True
01,15,True,False,True,True,True,26,sv,k,0.49135398864746094,True
01,15,True,False,True,True,True,27,ss,s,0.5346040725708008,True
01,15,True,False,True,True,True,28,ss,s,0.4398210048675537,True
01,15,True,False,True,True,True,29,ss,s,0.19722914695739746,True
01,15,True,False,True,True,True,30,ss,k,0.3406949043273926,False
01,15,True,False,True,True,True,31,ss,k,0.33403587341308594,False
01,15,True,False,True,True,True,32,as,k,0.287294864654541,True
01,15,True,False,True,True,True,33,ss,s,0.08263993263244629,True
01,15,True,False,True,True,True,34,sv,s,0.2298879623413086,False
01,15,True,False,True,True,True,35,ss,s,0.7958879470825195,True
01,15,True,False,True,True,True,36,ss,s,0.9312601089477539,True
01,15,True,False,True,True,True,37,ss,s,0.6850650310516357,True
01,15,True,False,True,True,True,38,sv,k,0.42468690872192383,True
01,15,True,False,True,True,True,39,ss,s,0.41462087631225586,True
01,15,True,False,True,True,True,40,ss,s,0.5572779178619385,True
01,16,True,False,True,True,True,1,ss,s,1.38515305519104,True
01,16,True,False,True,True,True,2,ss,s,0.6323719024658203,True
01,16,True,False,True,True,True,3,sv,k,0.45395398139953613,True
01,16,True,False,True,True,True,4,ss,s,0.5946929454803467,True
01,16,True,False,True,True,True,5,ss,s,0.3858530521392822,True
01,16,True,False,True,True,True,6,ss,s,0.5292630195617676,True
01,16,True,False,True,True,True,7,ss,k,0.5393750667572021,False
01,16,True,False,True,True,True,8,ss,k,0.44464898109436035,False
01,16,True,False,True,True,True,9,sv,s,0.8418059349060059,False
01,16,True,False,True,True,True,10,ss,s,0.663348913192749,True
01,16,True,False,True,True,True,11,ss,s,0.5959141254425049,True
01,16,True,False,True,True,True,12,ss,k,0.3389890193939209,False
01,16,True,False,True,True,True,13,sv,s,0.5886130332946777,False
01,16,True,False,True,True,True,14,sv,s,0.8678131103515625,False
01,16,True,False,True,True,True,15,ss,s,0.7676851749420166,True
01,16,True,False,True,True,True,16,ss,s,0.43990111351013184,True
01,16,True,False,True,True,True,17,ss,s,0.9410719871520996,True
01,16,True,False,True,True,True,18,as,k,0.4466109275817871,True
01,16,True,False,True,True,True,19,ss,s,0.4120049476623535,True
01,16,True,False,True,True,True,20,ss,s,0.3466989994049072,True
01,16,True,False,True,True,True,21,sv,s,0.41199302673339844,False
01,16,True,False,True,True,True,22,ss,s,0.47464895248413086,True
01,16,True,False,True,True,True,23,ss,s,0.5026531219482422,True
01,16,True,False,True,True,True,24,ss,s,0.33724498748779297,True
01,16,True,False,True,True,True,25,ss,k,0.3306448459625244,False
01,16,True,False,True,True,True,26,ss,s,0.40464019775390625,True
01,16,True,False,True,True,True,27,as,k,0.3712339401245117,True
01,16,True,False,True,True,True,28,ss,s,0.2992420196533203,True
01,16,True,False,True,True,True,29,ss,s,0.3578951358795166,True
01,16,True,False,True,True,True,30,ss,s,0.11866116523742676,True
01,16,True,False,True,True,True,31,ss,s,0.8646669387817383,True
01,16,True,False,True,True,True,32,sv,k,0.40490198135375977,True
01,16,True,False,True,True,True,33,ss,s,0.6279270648956299,True
01,16,True,False,True,True,True,34,ss,s,0.6499910354614258,True
01,16,True,False,True,True,True,35,ss,s,0.5106780529022217,True
01,16,True,False,True,True,True,36,ss,k,0.36116504669189453,False
01,16,True,False,True,True,True,37,as,s,0.36199307441711426,False
01,16,True,False,True,True,True,38,ss,s,0.37065911293029785,True
01,16,True,False,True,True,True,39,ss,s,0.3227109909057617,True
01,16,True,False,True,True,True,40,ss,s,0.48461294174194336,True
01,17,False,True,True,True,True,1,ss,s,0.74997878074646,True
01,17,False,True,True,True,True,2,ss,k,0.9985828399658203,False
01,17,False,True,True,True,True,3,ss,k,0.35785698890686035,False
01,17,False,True,True,True,True,4,as,k,0.43038105964660645,True
01,17,False,True,True,True,True,5,ss,s,0.43668198585510254,True
01,17,False,True,True,True,True,6,ss,s,0.20991992950439453,True
01,17,False,True,True,True,True,7,ss,s,0.3206970691680908,True
01,17,False,True,True,True,True,8,ss,k,0.5066671371459961,False
01,17,False,True,True,True,True,9,as,s,0.3893461227416992,False
01,17,False,True,True,True,True,10,ss,s,0.5327050685882568,True
01,17,False,True,True,True,True,11,ss,s,0.2619822025299072,True
01,17,False,True,True,True,True,12,ss,s,1.0986759662628174,True
01,17,False,True,True,True,True,13,ss,k,0.5259659290313721,False
01,17,False,True,True,True,True,14,ss,k,0.8158988952636719,False
01,17,False,True,True,True,True,15,as,s,0.7419540882110596,False
01,17,False,True,True,True,True,16,ss,s,4.247184991836548,True
01,17,False,True,True,True,True,17,av,s,0.4527261257171631,False
01,17,False,True,True,True,True,18,ss,s,1.3611059188842773,True
01,17,False,True,True,True,True,19,as,s,1.2740328311920166,False
01,17,False,True,True,True,True,20,ss,s,1.061964988708496,True
01,17,False,True,True,True,True,21,ss,k,0.38663506507873535,False
01,17,False,True,True,True,True,22,ss,k,0.35370707511901855,False
01,17,False,True,True,True,True,23,ss,s,0.2986741065979004,True
01,17,False,True,True,True,True,24,as,k,0.4859049320220947,True
01,17,False,True,True,True,True,25,ss,s,0.7052731513977051,True
01,17,False,True,True,True,True,26,sv,s,0.4356980323791504,False
01,17,False,True,True,True,True,27,ss,s,0.7931661605834961,True
01,17,False,True,True,True,True,28,ss,k,0.35260009765625,False
01,17,False,True,True,True,True,29,sv,s,0.601222038269043,False
01,17,False,True,True,True,True,30,ss,s,0.655799150466919,True
01,17,False,True,True,True,True,31,ss,k,0.6366088390350342,False
01,17,False,True,True,True,True,32,ss,s,0.43364691734313965,True
01,17,False,True,True,True,True,33,ss,s,0.8152129650115967,True
01,17,False,True,True,True,True,34,av,k,0.5016710758209229,True
01,17,False,True,True,True,True,35,ss,s,0.5685229301452637,True
01,17,False,True,True,True,True,36,ss,s,0.6406519412994385,True
01,17,False,True,True,True,True,37,ss,s,0.5020079612731934,True
01,17,False,True,True,True,True,38,ss,k,0.39267802238464355,False
01,17,False,True,True,True,True,39,ss,s,0.5998959541320801,True
01,17,False,True,True,True,True,40,av,k,0.5506961345672607,True
01,18,True,False,True,True,True,1,ss,s,1.3577110767364502,True
01,18,True,False,True,True,True,2,ss,k,0.4064779281616211,False
01,18,True,False,True,True,True,3,as,s,0.4850280284881592,False
01,18,True,False,True,True,True,4,ss,s,0.40071797370910645,True
01,18,True,False,True,True,True,5,ss,s,0.4153869152069092,True
01,18,True,False,True,True,True,6,ss,k,0.47799205780029297,False
01,18,True,False,True,True,True,7,ss,s,0.47393798828125,True
01,18,True,False,True,True,True,8,av,k,0.5420441627502441,True
01,18,True,False,True,True,True,9,ss,k,0.5034210681915283,False
01,18,True,False,True,True,True,10,ss,s,0.3459200859069824,True
01,18,True,False,True,True,True,11,ss,k,0.5712599754333496,False
01,18,True,False,True,True,True,12,ss,s,0.43526196479797363,True
01,18,True,False,True,True,True,13,av,k,0.4966099262237549,True
01,18,True,False,True,True,True,14,av,s,0.364016056060791,False
01,18,True,False,True,True,True,15,ss,s,1.5006990432739258,True
01,18,True,False,True,True,True,16,ss,s,0.5111758708953857,True
01,18,True,False,True,True,True,17,sv,s,0.5460150241851807,False
01,18,True,False,True,True,True,18,ss,s,0.5073540210723877,True
01,18,True,False,True,True,True,19,ss,s,0.4137740135192871,True
01,18,True,False,True,True,True,20,ss,s,0.3726968765258789,True
01,18,True,False,True,True,True,21,ss,k,0.5647180080413818,False
01,18,True,False,True,True,True,22,sv,s,0.5572738647460938,False
01,18,True,False,True,True,True,23,ss,s,0.8699281215667725,True
01,18,True,False,True,True,True,24,ss,s,0.4978210926055908,True
01,18,True,False,True,True,True,25,ss,s,0.5812580585479736,True
01,18,True,False,True,True,True,26,sv,k,0.5012691020965576,True
01,18,True,False,True,True,True,27,ss,s,0.5199239253997803,True
01,18,True,False,True,True,True,28,sv,s,0.33770012855529785,False
01,18,True,False,True,True,True,29,ss,s,0.451261043548584,True
01,18,True,False,True,True,True,30,sv,s,0.3759160041809082,False
01,18,True,False,True,True,True,31,ss,s,0.6799430847167969,True
01,18,True,False,True,True,True,32,ss,k,0.3160219192504883,False
01,18,True,False,True,True,True,33,ss,s,0.38193297386169434,True
01,18,True,False,True,True,True,34,ss,k,0.10992813110351562,False
01,18,True,False,True,True,True,35,sv,s,0.42470407485961914,False
01,18,True,False,True,True,True,36,ss,s,1.1826848983764648,True
01,18,True,False,True,True,True,37,ss,k,0.7580180168151855,False
01,18,True,False,True,True,True,38,ss,k,0.6308119297027588,False
01,18,True,False,True,True,True,39,ss,s,0.48471498489379883,True
01,18,True,False,True,True,True,40,as,k,0.5679178237915039,True
01,19,False,True,True,True,True,1,ss,s,0.8870949745178223,True
01,19,False,True,True,True,True,2,ss,s,0.7386879920959473,True
01,19,False,True,True,True,True,3,ss,s,0.7079999446868896,True
01,19,False,True,True,True,True,4,sv,k,0.5667259693145752,True
01,19,False,True,True,True,True,5,ss,s,0.6146819591522217,True
01,19,False,True,True,True,True,6,ss,s,0.5572059154510498,True
01,19,False,True,True,True,True,7,ss,s,0.5418639183044434,True
01,19,False,True,True,True,True,8,ss,k,0.5672659873962402,False
01,19,False,True,True,True,True,9,ss,k,0.5032901763916016,False
01,19,False,True,True,True,True,10,as,k,0.594048023223877,True
01,19,False,True,True,True,True,11,ss,s,0.4732828140258789,True
01,19,False,True,True,True,True,12,av,s,0.4132728576660156,False
01,19,False,True,True,True,True,13,ss,s,0.8519289493560791,True
01,19,False,True,True,True,True,14,ss,s,0.544625997543335,True
01,19,False,True,True,True,True,15,as,s,0.49791502952575684,False
01,19,False,True,True,True,True,16,ss,s,0.45325589179992676,True
01,19,False,True,True,True,True,17,ss,s,0.3777759075164795,True
01,19,False,True,True,True,True,18,ss,k,0.8019311428070068,False
01,19,False,True,True,True,True,19,av,s,0.6007218360900879,False
01,19,False,True,True,True,True,20,ss,s,1.2232742309570312,True
01,19,False,True,True,True,True,21,ss,s,0.4052460193634033,True
01,19,False,True,True,True,True,22,as,s,1.2198171615600586,False
01,19,False,True,True,True,True,23,ss,s,0.44195008277893066,True
01,19,False,True,True,True,True,24,ss,s,0.895359992980957,True
01,19,False,True,True,True,True,25,ss,k,0.6745090484619141,False
01,19,False,True,True,True,True,26,as,s,0.5186419486999512,False
01,19,False,True,True,True,True,27,as,s,2.208608865737915,False
01,19,False,True,True,True,True,28,ss,s,1.0232200622558594,True
01,19,False,True,True,True,True,29,ss,s,0.7332339286804199,True
01,19,False,True,True,True,True,30,ss,k,1.4227349758148193,False
01,19,False,True,True,True,True,31,av,k,0.48471999168395996,True
01,19,False,True,True,True,True,32,ss,s,1.071950912475586,True
01,19,False,True,True,True,True,33,ss,k,2.3000648021698,False
01,19,False,True,True,True,True,34,ss,s,0.6547479629516602,True
01,19,False,True,True,True,True,35,av,k,0.6912109851837158,True
01,19,False,True,True,True,True,36,ss,s,0.7424798011779785,True
01,19,False,True,True,True,True,37,ss,s,1.175950050354004,True
01,19,False,True,True,True,True,38,ss,k,0.5759451389312744,False
01,19,False,True,True,True,True,39,ss,k,0.5199530124664307,False
01,19,False,True,True,True,True,40,sv,s,0.42594003677368164,False
01,20,False,True,True,True,True,1,sv,s,1.3279550075531006,False
01,20,False,True,True,True,True,2,sv,s,0.49805307388305664,False
01,20,False,True,True,True,True,3,ss,s,0.6131999492645264,True
01,20,False,True,True,True,True,4,ss,k,0.5000178813934326,False
01,20,False,True,True,True,True,5,ss,s,0.42273902893066406,True
01,20,False,True,True,True,True,6,ss,s,0.4927809238433838,True
01,20,False,True,True,True,True,7,av,k,0.5840628147125244,True
01,20,False,True,True,True,True,8,ss,s,1.1833288669586182,True
01,20,False,True,True,True,True,9,ss,s,0.8547768592834473,True
01,20,False,True,True,True,True,10,sv,s,0.5794129371643066,False
01,20,False,True,True,True,True,11,ss,s,0.6753199100494385,True
01,20,False,True,True,True,True,12,av,s,0.5994241237640381,False
01,20,False,True,True,True,True,13,av,s,0.5339968204498291,False
01,20,False,True,True,True,True,14,ss,s,1.6311888694763184,True
01,20,False,True,True,True,True,15,sv,s,0.693324089050293,False
01,20,False,True,True,True,True,16,sv,k,0.696774959564209,True
01,20,False,True,True,True,True,17,sv,s,0.563957929611206,False
01,20,False,True,True,True,True,18,ss,s,1.492645025253296,True
01,20,False,True,True,True,True,19,as,s,0.4319469928741455,False
01,20,False,True,True,True,True,20,ss,s,0.805912971496582,True
01,20,False,True,True,True,True,21,ss,k,0.5886430740356445,False
01,20,False,True,True,True,True,22,ss,s,2.4760820865631104,True
01,20,False,True,True,True,True,23,ss,k,0.5360589027404785,False
01,20,False,True,True,True,True,24,sv,s,0.4892270565032959,False
01,20,False,True,True,True,True,25,ss,k,0.38867807388305664,False
01,20,False,True,True,True,True,26,ss,s,0.587939977645874,True
01,20,False,True,True,True,True,27,av,k,0.6193349361419678,True
01,20,False,True,True,True,True,28,ss,k,0.5532979965209961,False
01,20,False,True,True,True,True,29,ss,s,0.5059659481048584,True
01,20,False,True,True,True,True,30,ss,s,0.5007281303405762,True
01,20,False,True,True,True,True,31,ss,k,0.6792910099029541,False
01,20,False,True,True,True,True,32,ss,s,0.4433159828186035,True
01,20,False,True,True,True,True,33,sv,k,0.4486958980560303,True
01,20,False,True,True,True,True,34,ss,s,1.422010898590088,True
01,20,False,True,True,True,True,35,ss,s,0.772089958190918,True
01,20,False,True,True,True,True,36,ss,k,0.6438760757446289,False
01,20,False,True,True,True,True,37,ss,s,0.6333510875701904,True
01,20,False,True,True,True,True,38,av,k,0.5026919841766357,True
01,20,False,True,True,True,True,39,ss,s,0.545396089553833,True
01,20,False,True,True,True,True,40,ss,s,0.442702054977417,True
01,21,False,True,True,True,True,1,sv,s,0.9468719959259033,False
01,21,False,True,True,True,True,2,sv,k,0.8598840236663818,True
01,21,False,True,True,True,True,3,ss,s,0.616631031036377,True
01,21,False,True,True,True,True,4,av,s,0.5347590446472168,False
01,21,False,True,True,True,True,5,ss,s,0.7280449867248535,True
01,21,False,True,True,True,True,6,ss,s,0.8899691104888916,True
01,21,False,True,True,True,True,7,ss,k,0.6294069290161133,False
01,21,False,True,True,True,True,8,as,s,0.4913599491119385,False
01,21,False,True,True,True,True,9,ss,s,0.7027020454406738,True
01,21,False,True,True,True,True,10,ss,s,1.5373339653015137,True
01,21,False,True,True,True,True,11,ss,k,0.5865368843078613,False
01,21,False,True,True,True,True,12,sv,k,0.48194384574890137,True
01,21,False,True,True,True,True,13,ss,s,1.0538411140441895,True
01,21,False,True,True,True,True,14,ss,k,0.5947370529174805,False
01,21,False,True,True,True,True,15,av,s,0.4577791690826416,False
01,21,False,True,True,True,True,16,ss,s,0.310758113861084,True
01,21,False,True,True,True,True,17,ss,s,0.4651169776916504,True
01,21,False,True,True,True,True,18,ss,s,0.5659189224243164,True
01,21,False,True,True,True,True,19,as,k,0.48577094078063965,True
01,21,False,True,True,True,True,20,ss,s,0.44934606552124023,True
01,21,False,True,True,True,True,21,ss,s,0.4057619571685791,True
01,21,False,True,True,True,True,22,ss,s,0.48477602005004883,True
01,21,False,True,True,True,True,23,as,k,0.5680069923400879,True
01,21,False,True,True,True,True,24,ss,s,0.4080021381378174,True
01,21,False,True,True,True,True,25,ss,s,0.1346900463104248,True
01,21,False,True,True,True,True,26,ss,s,0.22406888008117676,True
01,21,False,True,True,True,True,27,sv,k,0.582089900970459,True
01,21,False,True,True,True,True,28,ss,s,0.4459850788116455,True
01,21,False,True,True,True,True,29,ss,s,0.10733604431152344,True
01,21,False,True,True,True,True,30,ss,s,0.30208706855773926,True
01,21,False,True,True,True,True,31,ss,k,0.3926429748535156,False
01,21,False,True,True,True,True,32,ss,k,0.43995189666748047,False
01,21,False,True,True,True,True,33,ss,k,0.49333786964416504,False
01,21,False,True,True,True,True,34,av,k,0.368664026260376,True
01,21,False,True,True,True,True,35,ss,s,0.8887159824371338,True
01,21,False,True,True,True,True,36,ss,s,0.5880908966064453,True
01,21,False,True,True,True,True,37,ss,s,0.4113459587097168,True
01,21,False,True,True,True,True,38,ss,k,0.522042989730835,False
01,21,False,True,True,True,True,39,sv,s,0.3959650993347168,False
01,21,False,True,True,True,True,40,sv,s,0.9472470283508301,False
01,22,False,True,True,True,True,1,ss,s,1.5047509670257568,True
01,22,False,True,True,True,True,2,ss,s,0.4353640079498291,True
01,22,False,True,True,True,True,3,ss,s,0.6247820854187012,True
01,22,False,True,True,True,True,4,sv,k,0.5266931056976318,True
01,22,False,True,True,True,True,5,ss,s,0.5687799453735352,True
01,22,False,True,True,True,True,6,ss,s,0.3686950206756592,True
01,22,False,True,True,True,True,7,ss,s,0.28870320320129395,True
01,22,False,True,True,True,True,8,ss,k,0.47600412368774414,False
01,22,False,True,True,True,True,9,ss,k,0.8878839015960693,False
01,22,False,True,True,True,True,10,ss,s,0.37938809394836426,True
01,22,False,True,True,True,True,11,ss,k,0.5071239471435547,False
01,22,False,True,True,True,True,12,as,s,0.5260789394378662,False
01,22,False,True,True,True,True,13,ss,s,1.4398720264434814,True
01,22,False,True,True,True,True,14,ss,s,0.45316505432128906,True
01,22,False,True,True,True,True,15,ss,s,0.3537120819091797,True
01,22,False,True,True,True,True,16,ss,s,0.2747979164123535,True
01,22,False,True,True,True,True,17,sv,k,0.5107769966125488,True
01,22,False,True,True,True,True,18,ss,s,0.3694272041320801,True
01,22,False,True,True,True,True,19,ss,s,0.4013338088989258,True
01,22,False,True,True,True,True,20,ss,s,0.31198906898498535,True
01,22,False,True,True,True,True,21,sv,s,0.4426391124725342,False
01,22,False,True,True,True,True,22,ss,s,0.4397768974304199,True
01,22,False,True,True,True,True,23,av,s,0.3893599510192871,False
01,22,False,True,True,True,True,24,ss,s,0.41257810592651367,True
01,22,False,True,True,True,True,25,ss,s,0.23538422584533691,True
01,22,False,True,True,True,True,26,ss,s,0.2806220054626465,True
01,22,False,True,True,True,True,27,ss,k,0.46073198318481445,False
01,22,False,True,True,True,True,28,ss,s,0.39310598373413086,True
01,22,False,True,True,True,True,29,as,k,0.43265581130981445,True
01,22,False,True,True,True,True,30,ss,s,0.3419768810272217,True
01,22,False,True,True,True,True,31,ss,s,0.2473621368408203,True
01,22,False,True,True,True,True,32,ss,s,0.5887441635131836,True
01,22,False,True,True,True,True,33,as,s,0.5877711772918701,False
01,22,False,True,True,True,True,34,ss,s,0.3473989963531494,True
01,22,False,True,True,True,True,35,as,s,0.27643799781799316,False
01,22,False,True,True,True,True,36,ss,s,0.5125949382781982,True
01,22,False,True,True,True,True,37,ss,s,0.31531214714050293,True
01,22,False,True,True,True,True,38,ss,s,0.3021371364593506,True
01,22,False,True,True,True,True,39,sv,k,0.5286591053009033,True
01,22,False,True,True,True,True,40,ss,s,0.7788081169128418,True
01,23,True,False,True,True,True,1,ss,s,1.8927080631256104,True
01,23,True,False,True,True,True,2,ss,k,0.5598649978637695,False
01,23,True,False,True,True,True,3,ss,s,0.48079586029052734,True
01,23,True,False,True,True,True,4,av,k,0.3886418342590332,True
01,23,True,False,True,True,True,5,ss,s,0.5079259872436523,True
01,23,True,False,True,True,True,6,av,s,0.5427508354187012,False
01,23,True,False,True,True,True,7,ss,k,0.6556799411773682,False
01,23,True,False,True,True,True,8,ss,s,0.284714937210083,True
01,23,True,False,True,True,True,9,as,k,0.31977319717407227,True
01,23,True,False,True,True,True,10,ss,s,0.4419820308685303,True
01,23,True,False,True,True,True,11,ss,s,0.3993709087371826,True
01,23,True,False,True,True,True,12,av,s,1.0380640029907227,False
01,23,True,False,True,True,True,13,ss,s,0.6193990707397461,True
01,23,True,False,True,True,True,14,as,s,0.4893949031829834,False
01,23,True,False,True,True,True,15,ss,s,0.7327358722686768,True
01,23,True,False,True,True,True,16,av,k,0.44600796699523926,True
01,23,True,False,True,True,True,17,av,s,0.4193429946899414,False
01,23,True,False,True,True,True,18,ss,s,0.5851061344146729,True
01,23,True,False,True,True,True,19,ss,k,0.4166138172149658,False
01,23,True,False,True,True,True,20,ss,k,0.462752103805542,False
01,23,True,False,True,True,True,21,ss,s,0.44334912300109863,True
01,23,True,False,True,True,True,22,av,k,0.3524050712585449,True
01,23,True,False,True,True,True,23,av,s,0.7453927993774414,False
01,23,True,False,True,True,True,24,ss,s,0.554650068283081,True
01,23,True,False,True,True,True,25,ss,s,0.6433620452880859,True
01,23,True,False,True,True,True,26,ss,k,0.6246330738067627,False
01,23,True,False,True,True,True,27,ss,k,0.6467721462249756,False
01,23,True,False,True,True,True,28,ss,s,0.7400410175323486,True
01,23,True,False,True,True,True,29,sv,k,0.4613659381866455,True
01,23,True,False,True,True,True,30,ss,s,0.7620220184326172,True
01,23,True,False,True,True,True,31,as,k,0.682560920715332,True
01,23,True,False,True,True,True,32,as,k,0.5097980499267578,True
01,23,True,False,True,True,True,33,ss,s,0.7845728397369385,True
01,23,True,False,True,True,True,34,ss,s,0.5679709911346436,True
01,23,True,False,True,True,True,35,ss,k,0.5441410541534424,False
01,23,True,False,True,True,True,36,av,s,0.37745189666748047,False
01,23,True,False,True,True,True,37,ss,k,0.42508506774902344,False
01,23,True,False,True,True,True,38,ss,s,0.5354008674621582,True
01,23,True,False,True,True,True,39,ss,s,0.6486928462982178,True
01,23,True,False,True,True,True,40,ss,k,0.941972017288208,False
01,24,True,False,True,True,True,1,ss,s,3.131514072418213,True
01,24,True,False,True,True,True,2,ss,k,0.5174221992492676,False
01,24,True,False,True,True,True,3,ss,k,0.4394369125366211,False
01,24,True,False,True,True,True,4,av,k,0.5726139545440674,True
01,24,True,False,True,True,True,5,ss,k,0.764564037322998,False
01,24,True,False,True,True,True,6,ss,s,0.4368109703063965,True
01,24,True,False,True,True,True,7,av,s,0.37879085540771484,False
01,24,True,False,True,True,True,8,ss,s,0.354672908782959,True
01,24,True,False,True,True,True,9,ss,s,0.7071619033813477,True
01,24,True,False,True,True,True,10,ss,k,2.72609806060791,False
01,24,True,False,True,True,True,11,as,s,0.47199511528015137,False
01,24,True,False,True,True,True,12,ss,s,0.691756010055542,True
01,24,True,False,True,True,True,13,ss,s,0.543241024017334,True
01,24,True,False,True,True,True,14,ss,k,0.4646940231323242,False
01,24,True,False,True,True,True,15,ss,s,0.42914390563964844,True
01,24,True,False,True,True,True,16,sv,k,1.0994508266448975,True
01,24,True,False,True,True,True,17,sv,s,0.3579890727996826,False
01,24,True,False,True,True,True,18,ss,s,0.8146679401397705,True
01,24,True,False,True,True,True,19,ss,s,1.4134058952331543,True
01,24,True,False,True,True,True,20,sv,k,0.5320401191711426,True
01,24,True,False,True,True,True,21,ss,s,0.5737099647521973,True
01,24,True,False,True,True,True,22,ss,s,0.43004298210144043,True
01,24,True,False,True,True,True,23,sv,s,0.4600670337677002,False
01,24,True,False,True,True,True,24,ss,s,0.40070199966430664,True
01,24,True,False,True,True,True,25,ss,s,0.4792211055755615,True
01,24,True,False,True,True,True,26,ss,k,0.5233550071716309,False
01,24,True,False,True,True,True,27,av,k,0.4454050064086914,True
01,24,True,False,True,True,True,28,ss,s,0.4986858367919922,True
01,24,True,False,True,True,True,29,ss,s,0.4140760898590088,True
01,24,True,False,True,True,True,30,ss,s,0.6047298908233643,True
01,24,True,False,True,True,True,31,av,k,0.4271988868713379,True
01,24,True,False,True,True,True,32,ss,s,0.3614010810852051,True
01,24,True,False,True,True,True,33,ss,s,0.20212697982788086,True
01,24,True,False,True,True,True,34,ss,s,0.4087531566619873,True
01,24,True,False,True,True,True,35,ss,k,0.4071531295776367,False
01,24,True,False,True,True,True,36,av,k,0.42178797721862793,True
01,24,True,False,True,True,True,37,ss,s,0.38814496994018555,True
01,24,True,False,True,True,True,38,ss,s,0.3235020637512207,True
01,24,True,False,True,True,True,39,as,s,0.43706607818603516,False
01,24,True,False,True,True,True,40,ss,s,0.37064194679260254,True
