participant_id,block_num,dynamic,static,av,sv,as,trial,state,response,rt,correct
03,1,True,False,False,True,False,1,ss,s,0.5645101070404053,True
03,1,True,False,False,True,False,2,ss,k,0.4140510559082031,False
03,1,True,False,False,True,False,3,sv,k,1.060642957687378,True
03,1,True,False,False,True,False,4,ss,s,0.4492380619049072,True
03,1,True,False,False,True,False,5,ss,s,0.3739738464355469,True
03,1,True,False,False,True,False,6,ss,k,0.3659830093383789,False
03,1,True,False,False,True,False,7,ss,s,0.41393494606018066,True
03,1,True,False,False,True,False,8,ss,s,0.4204120635986328,True
03,1,True,False,False,True,False,9,sv,s,0.3704869747161865,False
03,1,True,False,False,True,False,10,ss,s,1.1466751098632812,True
03,1,True,False,False,True,False,11,ss,s,0.5080251693725586,True
03,1,True,False,False,True,False,12,ss,k,0.5106821060180664,False
03,1,True,False,False,True,False,13,sv,k,0.4653968811035156,True
03,1,True,False,False,True,False,14,ss,s,0.4136648178100586,True
03,1,True,False,False,True,False,15,ss,s,0.41228508949279785,True
03,1,True,False,False,True,False,16,sv,k,0.3553628921508789,True
03,1,True,False,False,True,False,17,ss,s,0.24399113655090332,True
03,1,True,False,False,True,False,18,ss,s,0.24921488761901855,True
03,1,True,False,False,True,False,19,ss,s,0.253803014755249,True
03,1,True,False,False,True,False,20,sv,k,0.042497873306274414,True
03,1,True,False,False,True,False,21,ss,s,0.34400296211242676,True
03,1,True,False,False,True,False,22,ss,s,0.6892380714416504,True
03,1,True,False,False,True,False,23,ss,k,0.3086099624633789,False
03,1,True,False,False,True,False,24,ss,k,0.5512139797210693,False
03,1,True,False,False,True,False,25,sv,s,0.647968053817749,False
03,1,True,False,False,True,False,26,ss,s,0.41312599182128906,True
03,1,True,False,False,True,False,27,ss,s,0.33193492889404297,True
03,1,True,False,False,True,False,28,ss,s,0.4140031337738037,True
03,1,True,False,False,True,False,29,ss,s,0.44467806816101074,True
03,1,True,False,False,True,False,30,sv,k,0.2739269733428955,True
03,1,True,False,False,True,False,31,ss,s,0.4700160026550293,True
03,1,True,False,False,True,False,32,ss,s,0.24190187454223633,True
03,1,True,False,False,True,False,33,ss,s,0.36699485778808594,True
03,1,True,False,False,True,False,34,ss,s,0.34293317794799805,True
03,1,True,False,False,True,False,35,sv,k,0.3205749988555908,True
03,1,True,False,False,True,False,36,ss,s,0.37859201431274414,True
03,1,True,False,False,True,False,37,ss,s,0.25838518142700195,True
03,1,True,False,False,True,False,38,ss,s,0.25516510009765625,True
03,1,True,False,False,True,False,39,ss,s,0.3159029483795166,True
03,1,True,False,False,True,False,40,sv,k,0.3019680976867676,True
03,2,False,True,True,False,False,1,ss,s,0.5852680206298828,True
03,2,False,True,True,False,False,2,ss,s,0.34435105323791504,True
03,2,False,True,True,False,False,3,ss,k,0.2819850444793701,False
03,2,False,True,True,False,False,4,av,k,0.4219951629638672,True
03,2,False,True,True,False,False,5,ss,s,0.3080301284790039,True
03,2,False,True,True,False,False,6,ss,s,0.270374059677124,True
03,2,False,True,True,False,False,7,ss,s,0.3065171241760254,True
03,2,False,True,True,False,False,8,ss,k,0.26929187774658203,False
03,2,False,True,True,False,False,9,av,k,0.5452759265899658,True
03,2,False,True,True,False,False,10,ss,s,0.33862805366516113,True
03,2,False,True,True,False,False,11,ss,s,0.3558199405670166,True
03,2,False,True,True,False,False,12,ss,s,0.3165769577026367,True
03,2,False,True,True,False,False,13,ss,s,0.2707040309906006,True
03,2,False,True,True,False,False,14,av,s,0.4506869316101074,False
03,2,False,True,True,False,False,15,ss,s,0.7432842254638672,True
03,2,False,True,True,False,False,16,av,s,0.43256187438964844,False
03,2,False,True,True,False,False,17,av,s,0.7260000705718994,False
03,2,False,True,True,False,False,18,ss,s,0.6880390644073486,True
03,2,False,True,True,False,False,19,ss,k,0.483367919921875,False
03,2,False,True,True,False,False,20,ss,k,0.446727991104126,False
03,2,False,True,True,False,False,21,ss,k,0.468066930770874,False
03,2,False,True,True,False,False,22,av,s,0.3999919891357422,False
03,2,False,True,True,False,False,23,ss,s,0.9747090339660645,True
03,2,False,True,True,False,False,24,av,s,0.5906169414520264,False
03,2,False,True,True,False,False,25,ss,s,0.8060469627380371,True
03,2,False,True,True,False,False,26,av,s,0.8204898834228516,False
03,2,False,True,True,False,False,27,ss,s,0.570612907409668,True
03,2,False,True,True,False,False,28,ss,k,0.4746999740600586,False
03,2,False,True,True,False,False,29,ss,k,0.5906269550323486,False
03,2,False,True,True,False,False,30,av,s,0.5100700855255127,False
03,2,False,True,True,False,False,31,ss,s,0.8645229339599609,True
03,2,False,True,True,False,False,32,ss,k,0.41314005851745605,False
03,2,False,True,True,False,False,33,ss,s,0.548098087310791,True
03,2,False,True,True,False,False,34,ss,k,0.4213840961456299,False
03,2,False,True,True,False,False,35,ss,k,0.3872988224029541,False
03,2,False,True,True,False,False,36,ss,k,0.4906349182128906,False
03,2,False,True,True,False,False,37,ss,k,1.0219769477844238,False
03,2,False,True,True,False,False,38,av,s,0.3639678955078125,False
03,2,False,True,True,False,False,39,ss,s,1.292712926864624,True
03,2,False,True,True,False,False,40,ss,s,0.5120961666107178,True
03,3,True,False,False,False,True,1,ss,s,0.7698369026184082,True
03,3,True,False,False,False,True,2,as,s,0.39406800270080566,False
03,3,True,False,False,False,True,3,ss,s,0.5372660160064697,True
03,3,True,False,False,False,True,4,as,s,0.36253905296325684,False
03,3,True,False,False,False,True,5,as,s,0.41903209686279297,False
03,3,True,False,False,False,True,6,ss,s,0.4013559818267822,True
03,3,True,False,False,False,True,7,ss,k,0.38404297828674316,False
03,3,True,False,False,False,True,8,ss,k,0.711371898651123,False
03,3,True,False,False,False,True,9,ss,s,0.37781691551208496,True
03,3,True,False,False,False,True,10,as,k,0.7858262062072754,True
03,3,True,False,False,False,True,11,ss,s,0.5532808303833008,True
03,3,True,False,False,False,True,12,as,s,0.3458230495452881,False
03,3,True,False,False,False,True,13,ss,s,0.579272985458374,True
03,3,True,False,False,False,True,14,ss,s,1.243044137954712,True
03,3,True,False,False,False,True,15,ss,s,0.3526430130004883,True
03,3,True,False,False,False,True,16,as,k,0.36939406394958496,True
03,3,True,False,False,False,True,17,as,s,0.32938194274902344,False
03,3,True,False,False,False,True,18,ss,s,0.43528199195861816,True
03,3,True,False,False,False,True,19,ss,k,0.2643909454345703,False
03,3,True,False,False,False,True,20,as,s,0.05338692665100098,False
03,3,True,False,False,False,True,21,ss,s,0.5459840297698975,True
03,3,True,False,False,False,True,22,ss,k,0.8113410472869873,False
03,3,True,False,False,False,True,23,ss,k,0.3698430061340332,False
03,3,True,False,False,False,True,24,ss,k,0.31404805183410645,False
03,3,True,False,False,False,True,25,as,k,0.3966071605682373,True
03,3,True,False,False,False,True,26,ss,s,0.5480709075927734,True
03,3,True,False,False,False,True,27,ss,k,0.39736485481262207,False
03,3,True,False,False,False,True,28,ss,s,0.10063910484313965,True
03,3,True,False,False,False,True,29,as,k,0.3272891044616699,True
03,3,True,False,False,False,True,30,ss,s,0.9374208450317383,True
03,3,True,False,False,False,True,31,ss,k,0.37854790687561035,False
03,3,True,False,False,False,True,32,ss,s,0.29862117767333984,True
03,3,True,False,False,False,True,33,as,k,0.48603296279907227,True
03,3,True,False,False,False,True,34,as,s,0.3533918857574463,False
03,3,True,False,False,False,True,35,ss,s,0.4340660572052002,True
03,3,True,False,False,False,True,36,ss,s,0.18331694602966309,True
03,3,True,False,False,False,True,37,as,s,0.36663222312927246,False
03,3,True,False,False,False,True,38,ss,s,1.0706470012664795,True
03,3,True,False,False,False,True,39,ss,s,0.5146019458770752,True
03,3,True,False,False,False,True,40,ss,k,0.38919591903686523,False
03,4,True,False,False,False,True,1,ss,s,1.9628939628601074,True
03,4,True,False,False,False,True,2,ss,s,0.7313392162322998,True
03,4,True,False,False,False,True,3,ss,k,0.42131805419921875,False
03,4,True,False,False,False,True,4,as,k,0.48317384719848633,True
03,4,True,False,False,False,True,5,ss,s,0.2947731018066406,True
03,4,True,False,False,False,True,6,ss,s,0.3060719966888428,True
03,4,True,False,False,False,True,7,ss,k,1.292773962020874,False
03,4,True,False,False,False,True,8,as,k,0.5040860176086426,True
03,4,True,False,False,False,True,9,ss,s,0.3386530876159668,True
03,4,True,False,False,False,True,10,ss,s,0.2760629653930664,True
03,4,True,False,False,False,True,11,as,s,0.2800779342651367,False
03,4,True,False,False,False,True,12,ss,s,0.3880589008331299,True
03,4,True,False,False,False,True,13,ss,s,0.3394010066986084,True
03,4,True,False,False,False,True,14,ss,k,0.3647298812866211,False
03,4,True,False,False,False,True,15,as,k,0.40520191192626953,True
03,4,True,False,False,False,True,16,ss,s,2.5880329608917236,True
03,4,True,False,False,False,True,17,ss,s,0.33939290046691895,True
03,4,True,False,False,False,True,18,ss,k,0.47667908668518066,False
03,4,True,False,False,False,True,19,as,k,0.4886479377746582,True
03,4,True,False,False,False,True,20,ss,s,0.4200859069824219,True
03,4,True,False,False,False,True,21,as,s,0.2820620536804199,False
03,4,True,False,False,False,True,22,ss,s,0.6619980335235596,True
03,4,True,False,False,False,True,23,as,s,0.3706018924713135,False
03,4,True,False,False,False,True,24,ss,s,0.4105489253997803,True
03,4,True,False,False,False,True,25,ss,k,0.368973970413208,False
03,4,True,False,False,False,True,26,ss,k,0.6250510215759277,False
03,4,True,False,False,False,True,27,as,k,0.2553842067718506,True
03,4,True,False,False,False,True,28,ss,s,0.3720271587371826,True
03,4,True,False,False,False,True,29,ss,k,0.38005590438842773,False
03,4,True,False,False,False,True,30,ss,s,0.3240318298339844,True
03,4,True,False,False,False,True,31,ss,k,0.3020329475402832,False
03,4,True,False,False,False,True,32,as,k,0.6726009845733643,True
03,4,True,False,False,False,True,33,ss,s,0.41251611709594727,True
03,4,True,False,False,False,True,34,ss,s,0.23517203330993652,True
03,4,True,False,False,False,True,35,ss,s,0.36834096908569336,True
03,4,True,False,False,False,True,36,as,k,0.42446017265319824,True
03,4,True,False,False,False,True,37,ss,s,0.334758996963501,True
03,4,True,False,False,False,True,38,ss,s,0.26403307914733887,True
03,4,True,False,False,False,True,39,ss,s,0.27651000022888184,True
03,4,True,False,False,False,True,40,ss,k,0.24862885475158691,False
03,5,False,True,False,False,True,1,as,s,3.073401927947998,False
03,5,False,True,False,False,True,2,ss,s,0.3171041011810303,True
03,5,False,True,False,False,True,3,as,k,0.3273298740386963,True
03,5,False,True,False,False,True,4,ss,s,0.2573390007019043,True
03,5,False,True,False,False,True,5,as,k,0.2780129909515381,True
03,5,False,True,False,False,True,6,as,s,0.25804591178894043,False
03,5,False,True,False,False,True,7,ss,s,0.43036317825317383,True
03,5,False,True,False,False,True,8,ss,s,0.27665114402770996,True
03,5,False,True,False,False,True,9,as,k,0.3446998596191406,True
03,5,False,True,False,False,True,10,as,k,0.3538031578063965,True
03,5,False,True,False,False,True,11,ss,s,0.25862693786621094,True
03,5,False,True,False,False,True,12,as,s,0.17527198791503906,False
03,5,False,True,False,False,True,13,ss,s,0.6231470108032227,True
03,5,False,True,False,False,True,14,ss,k,0.2851691246032715,False
03,5,False,True,False,False,True,15,as,k,0.4566009044647217,True
03,5,False,True,False,False,True,16,ss,k,0.31739091873168945,False
03,5,False,True,False,False,True,17,as,k,0.39931488037109375,True
03,5,False,True,False,False,True,18,ss,s,0.43004798889160156,True
03,5,False,True,False,False,True,19,as,s,1.5478918552398682,False
03,5,False,True,False,False,True,20,ss,s,0.7973771095275879,True
03,5,False,True,False,False,True,21,as,s,0.32458996772766113,False
03,5,False,True,False,False,True,22,ss,s,0.4946608543395996,True
03,5,False,True,False,False,True,23,as,s,0.40199995040893555,False
03,5,False,True,False,False,True,24,ss,s,0.3846700191497803,True
03,5,False,True,False,False,True,25,ss,k,0.3361210823059082,False
03,5,False,True,False,False,True,26,ss,k,0.27329397201538086,False
03,5,False,True,False,False,True,27,as,k,0.26132822036743164,True
03,5,False,True,False,False,True,28,ss,s,0.282012939453125,True
03,5,False,True,False,False,True,29,ss,s,0.22996997833251953,True
03,5,False,True,False,False,True,30,ss,s,0.3561208248138428,True
03,5,False,True,False,False,True,31,ss,k,0.2524290084838867,False
03,5,False,True,False,False,True,32,ss,k,0.3452460765838623,False
03,5,False,True,False,False,True,33,ss,k,0.4904470443725586,False
03,5,False,True,False,False,True,34,ss,k,0.3581380844116211,False
03,5,False,True,False,False,True,35,as,s,0.3267209529876709,False
03,5,False,True,False,False,True,36,ss,s,0.4167490005493164,True
03,5,False,True,False,False,True,37,as,s,0.22263193130493164,False
03,5,False,True,False,False,True,38,ss,s,0.35666704177856445,True
03,5,False,True,False,False,True,39,as,k,0.02937602996826172,True
03,5,False,True,False,False,True,40,ss,s,0.24316811561584473,True
03,6,False,True,True,False,False,1,ss,s,1.9614830017089844,True
03,6,False,True,True,False,False,2,av,s,0.12999701499938965,False
03,6,False,True,True,False,False,3,ss,s,0.5558359622955322,True
03,6,False,True,True,False,False,4,ss,k,0.01277303695678711,False
03,6,False,True,True,False,False,5,ss,s,0.043318986892700195,True
03,6,False,True,True,False,False,6,ss,k,0.07268095016479492,False
03,6,False,True,True,False,False,7,av,s,1.0605199337005615,False
03,6,False,True,True,False,False,8,av,s,0.60129714012146,False
03,6,False,True,True,False,False,9,ss,k,0.4960899353027344,False
03,6,False,True,True,False,False,10,ss,s,0.02723407745361328,True
03,6,False,True,True,False,False,11,ss,s,0.7612969875335693,True
03,6,False,True,True,False,False,12,ss,k,0.9060649871826172,False
03,6,False,True,True,False,False,13,ss,k,0.5006589889526367,False
03,6,False,True,True,False,False,14,av,k,0.4231541156768799,True
03,6,False,True,True,False,False,15,ss,k,0.6292588710784912,False
03,6,False,True,True,False,False,16,av,s,0.03532886505126953,False
03,6,False,True,True,False,False,17,ss,s,0.32863903045654297,True
03,6,False,True,True,False,False,18,ss,s,0.8505570888519287,True
03,6,False,True,True,False,False,19,av,s,0.1510789394378662,False
03,6,False,True,True,False,False,20,ss,s,0.5520961284637451,True
03,6,False,True,True,False,False,21,av,s,0.1367180347442627,False
03,6,False,True,True,False,False,22,ss,s,0.34598612785339355,True
03,6,False,True,True,False,False,23,ss,k,0.10732698440551758,False
03,6,False,True,True,False,False,24,ss,k,0.12610507011413574,False
03,6,False,True,True,False,False,25,ss,k,0.06410408020019531,False
03,6,False,True,True,False,False,26,av,s,0.3567039966583252,False
03,6,False,True,True,False,False,27,ss,s,0.8294639587402344,True
03,6,False,True,True,False,False,28,ss,k,1.235321044921875,False
03,6,False,True,True,False,False,29,ss,s,0.584709882736206,True
03,6,False,True,True,False,False,30,ss,s,0.6881029605865479,True
03,6,False,True,True,False,False,31,ss,k,0.37143707275390625,False
03,6,False,True,True,False,False,32,av,k,0.4754600524902344,True
03,6,False,True,True,False,False,33,ss,s,0.49541616439819336,True
03,6,False,True,True,False,False,34,av,s,0.26668381690979004,False
03,6,False,True,True,False,False,35,av,s,0.5586919784545898,False
03,6,False,True,True,False,False,36,ss,s,0.9674739837646484,True
03,6,False,True,True,False,False,37,av,s,0.6711969375610352,False
03,6,False,True,True,False,False,38,ss,k,0.49919700622558594,False
03,6,False,True,True,False,False,39,ss,s,0.10979104042053223,True
03,6,False,True,True,False,False,40,av,k,0.12871098518371582,True
03,7,False,True,False,False,True,1,ss,s,0.9386188983917236,True
03,7,False,True,False,False,True,2,as,s,0.563899040222168,False
03,7,False,True,False,False,True,3,ss,s,0.468641996383667,True
03,7,False,True,False,False,True,4,ss,s,0.2885899543762207,True
03,7,False,True,False,False,True,5,as,k,0.2918989658355713,True
03,7,False,True,False,False,True,6,ss,s,0.2872738838195801,True
03,7,False,True,False,False,True,7,ss,s,0.26665806770324707,True
03,7,False,True,False,False,True,8,as,s,0.28666090965270996,False
03,7,False,True,False,False,True,9,ss,s,0.32208895683288574,True
03,7,False,True,False,False,True,10,as,s,0.23598003387451172,False
03,7,False,True,False,False,True,11,ss,s,0.5534119606018066,True
03,7,False,True,False,False,True,12,as,s,0.31406092643737793,False
03,7,False,True,False,False,True,13,ss,s,0.4527149200439453,True
03,7,False,True,False,False,True,14,ss,s,0.36934995651245117,True
03,7,False,True,False,False,True,15,ss,k,0.3692917823791504,False
03,7,False,True,False,False,True,16,as,k,0.5854132175445557,True
03,7,False,True,False,False,True,17,ss,s,0.384721040725708,True
03,7,False,True,False,False,True,18,ss,s,0.3121058940887451,True
03,7,False,True,False,False,True,19,as,k,0.39473891258239746,True
03,7,False,True,False,False,True,20,ss,s,0.3297750949859619,True
03,7,False,True,False,False,True,21,as,k,0.2999999523162842,True
03,7,False,True,False,False,True,22,ss,s,0.4627060890197754,True
03,7,False,True,False,False,True,23,ss,k,0.3151590824127197,False
03,7,False,True,False,False,True,24,ss,k,0.4216630458831787,False
03,7,False,True,False,False,True,25,ss,k,0.49201202392578125,False
03,7,False,True,False,False,True,26,as,k,0.6232199668884277,True
03,7,False,True,False,False,True,27,ss,s,0.44520092010498047,True
03,7,False,True,False,False,True,28,ss,s,0.2586829662322998,True
03,7,False,True,False,False,True,29,as,s,0.34336304664611816,False
03,7,False,True,False,False,True,30,ss,s,0.6727311611175537,True
03,7,False,True,False,False,True,31,as,k,0.32469606399536133,True
03,7,False,True,False,False,True,32,ss,s,0.4944941997528076,True
03,7,False,True,False,False,True,33,ss,s,0.2736780643463135,True
03,7,False,True,False,False,True,34,ss,s,0.29405689239501953,True
03,7,False,True,False,False,True,35,ss,k,0.3213059902191162,False
03,7,False,True,False,False,True,36,ss,k,0.5073320865631104,False
03,7,False,True,False,False,True,37,as,k,0.34990501403808594,True
03,7,False,True,False,False,True,38,ss,s,0.35858798027038574,True
03,7,False,True,False,False,True,39,ss,s,0.2710459232330322,True
03,7,False,True,False,False,True,40,ss,s,0.29943203926086426,True
03,8,True,False,True,False,False,1,ss,s,1.0361509323120117,True
03,8,True,False,True,False,False,2,ss,k,0.649075984954834,False
03,8,True,False,True,False,False,3,ss,s,0.30189990997314453,True
03,8,True,False,True,False,False,4,av,k,0.3765830993652344,True
03,8,True,False,True,False,False,5,ss,s,0.5283980369567871,True
03,8,True,False,True,False,False,6,ss,s,0.2826869487762451,True
03,8,True,False,True,False,False,7,av,k,0.37383484840393066,True
03,8,True,False,True,False,False,8,ss,s,0.47003912925720215,True
03,8,True,False,True,False,False,9,ss,k,0.28182101249694824,False
03,8,True,False,True,False,False,10,av,k,0.6855969429016113,True
03,8,True,False,True,False,False,11,av,s,0.3530440330505371,False
03,8,True,False,True,False,False,12,ss,s,0.6260459423065186,True
03,8,True,False,True,False,False,13,av,k,0.30370402336120605,True
03,8,True,False,True,False,False,14,ss,s,0.4106621742248535,True
03,8,True,False,True,False,False,15,ss,s,0.11262822151184082,True
03,8,True,False,True,False,False,16,ss,k,0.49988579750061035,False
03,8,True,False,True,False,False,17,av,k,0.5026381015777588,True
03,8,True,False,True,False,False,18,ss,s,0.40120911598205566,True
03,8,True,False,True,False,False,19,ss,k,1.0879929065704346,False
03,8,True,False,True,False,False,20,ss,k,0.6673870086669922,False
03,8,True,False,True,False,False,21,av,k,0.35907697677612305,True
03,8,True,False,True,False,False,22,ss,s,0.856093168258667,True
03,8,True,False,True,False,False,23,ss,s,0.30868101119995117,True
03,8,True,False,True,False,False,24,ss,s,0.30334901809692383,True
03,8,True,False,True,False,False,25,av,k,0.3140690326690674,True
03,8,True,False,True,False,False,26,ss,s,0.28473591804504395,True
03,8,True,False,True,False,False,27,ss,s,0.24017882347106934,True
03,8,True,False,True,False,False,28,ss,s,0.22131919860839844,True
03,8,True,False,True,False,False,29,av,k,0.34731602668762207,True
03,8,True,False,True,False,False,30,ss,s,0.4926869869232178,True
03,8,True,False,True,False,False,31,ss,s,0.23995494842529297,True
03,8,True,False,True,False,False,32,ss,s,0.27707600593566895,True
03,8,True,False,True,False,False,33,av,k,0.25711894035339355,True
03,8,True,False,True,False,False,34,ss,s,0.27001214027404785,True
03,8,True,False,True,False,False,35,ss,s,0.01823592185974121,True
03,8,True,False,True,False,False,36,ss,s,0.600059986114502,True
03,8,True,False,True,False,False,37,ss,k,0.23048090934753418,False
03,8,True,False,True,False,False,38,ss,s,1.1486999988555908,True
03,8,True,False,True,False,False,39,av,k,0.06998109817504883,True
03,8,True,False,True,False,False,40,ss,s,0.586090087890625,True
03,9,True,False,False,True,False,1,ss,s,1.4054820537567139,True
03,9,True,False,False,True,False,2,ss,s,0.2919011116027832,True
03,9,True,False,False,True,False,3,sv,s,0.35124683380126953,False
03,9,True,False,False,True,False,4,sv,s,0.43191099166870117,False
03,9,True,False,False,True,False,5,ss,k,0.5181229114532471,False
03,9,True,False,False,True,False,6,sv,s,0.3517158031463623,False
03,9,True,False,False,True,False,7,sv,k,0.6327700614929199,True
03,9,True,False,False,True,False,8,ss,s,0.37407588958740234,True
03,9,True,False,False,True,False,9,ss,k,0.33396100997924805,False
03,9,True,False,False,True,False,10,ss,k,0.3030710220336914,False
03,9,True,False,False,True,False,11,ss,s,0.3220651149749756,True
03,9,True,False,False,True,False,12,sv,k,0.340069055557251,True
03,9,True,False,False,True,False,13,ss,k,0.34140706062316895,False
03,9,True,False,False,True,False,14,ss,s,0.2628011703491211,True
03,9,True,False,False,True,False,15,sv,s,0.2833411693572998,False
03,9,True,False,False,True,False,16,ss,s,0.5347340106964111,True
03,9,True,False,False,True,False,17,ss,k,1.1601080894470215,False
03,9,True,False,False,True,False,18,ss,k,0.6567749977111816,False
03,9,True,False,False,True,False,19,sv,k,0.4053080081939697,True
03,9,True,False,False,True,False,20,ss,s,0.41200900077819824,True
03,9,True,False,False,True,False,21,ss,s,0.29874420166015625,True
03,9,True,False,False,True,False,22,sv,s,0.31801581382751465,False
03,9,True,False,False,True,False,23,ss,s,0.400144100189209,True
03,9,True,False,False,True,False,24,sv,k,0.2865118980407715,True
03,9,True,False,False,True,False,25,ss,s,0.34601688385009766,True
03,9,True,False,False,True,False,26,ss,s,0.267117977142334,True
03,9,True,False,False,True,False,27,ss,k,0.3833451271057129,False
03,9,True,False,False,True,False,28,sv,k,0.31878113746643066,True
03,9,True,False,False,True,False,29,ss,s,0.2887709140777588,True
03,9,True,False,False,True,False,30,ss,s,0.2600109577178955,True
03,9,True,False,False,True,False,31,ss,k,0.23275089263916016,False
03,9,True,False,False,True,False,32,sv,k,0.350100040435791,True
03,9,True,False,False,True,False,33,ss,s,0.2707810401916504,True
03,9,True,False,False,True,False,34,ss,s,0.2027740478515625,True
03,9,True,False,False,True,False,35,ss,k,0.32122015953063965,False
03,9,True,False,False,True,False,36,ss,k,0.2751460075378418,False
03,9,True,False,False,True,False,37,sv,k,0.6793410778045654,True
03,9,True,False,False,True,False,38,ss,s,0.47534608840942383,True
03,9,True,False,False,True,False,39,ss,s,0.2551100254058838,True
03,9,True,False,False,True,False,40,ss,s,0.3081200122833252,True
03,10,False,True,False,True,False,1,sv,s,1.429408073425293,False
03,10,False,True,False,True,False,2,ss,s,0.4753999710083008,True
03,10,False,True,False,True,False,3,ss,k,0.35936594009399414,False
03,10,False,True,False,True,False,4,ss,s,0.03998517990112305,True
03,10,False,True,False,True,False,5,sv,s,0.3172941207885742,False
03,10,False,True,False,True,False,6,ss,s,0.5033869743347168,True
03,10,False,True,False,True,False,7,sv,s,0.2980308532714844,False
03,10,False,True,False,True,False,8,ss,s,0.5091588497161865,True
03,10,False,True,False,True,False,9,ss,s,0.2641329765319824,True
03,10,False,True,False,True,False,10,sv,s,0.4127829074859619,False
03,10,False,True,False,True,False,11,ss,s,0.4433610439300537,True
03,10,False,True,False,True,False,12,sv,k,0.3204810619354248,True
03,10,False,True,False,True,False,13,ss,s,0.5145699977874756,True
03,10,False,True,False,True,False,14,sv,s,0.31713104248046875,False
03,10,False,True,False,True,False,15,ss,s,0.3591299057006836,True
03,10,False,True,False,True,False,16,ss,s,0.3121349811553955,True
03,10,False,True,False,True,False,17,ss,k,0.3785669803619385,False
03,10,False,True,False,True,False,18,ss,k,0.3148171901702881,False
03,10,False,True,False,True,False,19,sv,k,0.461392879486084,True
03,10,False,True,False,True,False,20,ss,s,0.5301070213317871,True
03,10,False,True,False,True,False,21,sv,k,0.31597399711608887,True
03,10,False,True,False,True,False,22,sv,s,0.30976200103759766,False
03,10,False,True,False,True,False,23,ss,s,0.5605049133300781,True
03,10,False,True,False,True,False,24,sv,s,0.10508108139038086,False
03,10,False,True,False,True,False,25,ss,k,0.571937084197998,False
03,10,False,True,False,True,False,26,ss,k,0.228104829788208,False
03,10,False,True,False,True,False,27,sv,s,0.3061239719390869,False
03,10,False,True,False,True,False,28,sv,s,0.4767491817474365,False
03,10,False,True,False,True,False,29,ss,s,0.44877099990844727,True
03,10,False,True,False,True,False,30,ss,s,0.7180869579315186,True
03,10,False,True,False,True,False,31,sv,k,0.45598506927490234,True
03,10,False,True,False,True,False,32,ss,s,0.4127068519592285,True
03,10,False,True,False,True,False,33,ss,s,0.33112001419067383,True
03,10,False,True,False,True,False,34,sv,k,0.3493340015411377,True
03,10,False,True,False,True,False,35,sv,s,0.29375505447387695,False
03,10,False,True,False,True,False,36,ss,s,0.4727799892425537,True
03,10,False,True,False,True,False,37,ss,s,0.00557398796081543,True
03,10,False,True,False,True,False,38,ss,k,0.49214601516723633,False
03,10,False,True,False,True,False,39,ss,k,0.28743696212768555,False
03,10,False,True,False,True,False,40,sv,k,0.3467381000518799,True
03,11,False,True,False,True,False,1,ss,k,0.891556978225708,False
03,11,False,True,False,True,False,2,sv,s,0.9347460269927979,False
03,11,False,True,False,True,False,3,ss,s,0.3919990062713623,True
03,11,False,True,False,True,False,4,sv,k,0.38309812545776367,True
03,11,False,True,False,True,False,5,ss,s,0.5344569683074951,True
03,11,False,True,False,True,False,6,sv,k,0.34411001205444336,True
03,11,False,True,False,True,False,7,ss,s,0.273364782333374,True
03,11,False,True,False,True,False,8,ss,k,0.28539204597473145,False
03,11,False,True,False,True,False,9,sv,s,0.5047488212585449,False
03,11,False,True,False,True,False,10,ss,s,0.515376091003418,True
03,11,False,True,False,True,False,11,sv,s,0.2700650691986084,False
03,11,False,True,False,True,False,12,ss,s,0.53013014793396,True
03,11,False,True,False,True,False,13,ss,s,0.29990100860595703,True
03,11,False,True,False,True,False,14,ss,k,0.34275197982788086,False
03,11,False,True,False,True,False,15,ss,k,0.34402990341186523,False
03,11,False,True,False,True,False,16,sv,s,0.34497594833374023,False
03,11,False,True,False,True,False,17,ss,s,0.3387939929962158,True
03,11,False,True,False,True,False,18,ss,s,0.33194589614868164,True
03,11,False,True,False,True,False,19,sv,k,0.40575289726257324,True
03,11,False,True,False,True,False,20,ss,s,0.36479806900024414,True
03,11,False,True,False,True,False,21,sv,s,0.38944196701049805,False
03,11,False,True,False,True,False,22,ss,s,0.30074381828308105,True
03,11,False,True,False,True,False,23,sv,s,0.27131104469299316,False
03,11,False,True,False,True,False,24,sv,s,0.2833671569824219,False
03,11,False,True,False,True,False,25,ss,s,0.5028059482574463,True
03,11,False,True,False,True,False,26,ss,k,0.7853529453277588,False
03,11,False,True,False,True,False,27,sv,k,0.32077813148498535,True
03,11,False,True,False,True,False,28,ss,k,0.4748499393463135,False
03,11,False,True,False,True,False,29,sv,k,0.29476284980773926,True
03,11,False,True,False,True,False,30,sv,s,0.35410094261169434,False
03,11,False,True,False,True,False,31,ss,s,0.4025309085845947,True
03,11,False,True,False,True,False,32,ss,k,0.6891059875488281,False
03,11,False,True,False,True,False,33,ss,k,0.4205770492553711,False
03,11,False,True,False,True,False,34,ss,k,0.35457301139831543,False
03,11,False,True,False,True,False,35,sv,k,0.37109804153442383,True
03,11,False,True,False,True,False,36,ss,k,0.4111180305480957,False
03,11,False,True,False,True,False,37,ss,s,0.338001012802124,True
03,11,False,True,False,True,False,38,ss,k,0.24338984489440918,False
03,11,False,True,False,True,False,39,sv,s,0.04876089096069336,False
03,11,False,True,False,True,False,40,sv,s,0.35004711151123047,False
03,12,True,False,True,False,False,1,ss,s,1.0201900005340576,True
03,12,True,False,True,False,False,2,ss,k,0.3941318988800049,False
03,12,True,False,True,False,False,3,ss,k,0.5532131195068359,False
03,12,True,False,True,False,False,4,av,s,0.33007097244262695,False
03,12,True,False,True,False,False,5,ss,s,0.5960440635681152,True
03,12,True,False,True,False,False,6,ss,s,0.35547399520874023,True
03,12,True,False,True,False,False,7,ss,s,0.3399841785430908,True
03,12,True,False,True,False,False,8,av,k,0.36536502838134766,True
03,12,True,False,True,False,False,9,ss,s,0.38213515281677246,True
03,12,True,False,True,False,False,10,ss,s,0.2698240280151367,True
03,12,True,False,True,False,False,11,ss,s,0.27404284477233887,True
03,12,True,False,True,False,False,12,ss,k,0.29404306411743164,False
03,12,True,False,True,False,False,13,ss,k,0.40140199661254883,False
03,12,True,False,True,False,False,14,av,k,0.7200520038604736,True
03,12,True,False,True,False,False,15,ss,s,0.40206193923950195,True
03,12,True,False,True,False,False,16,ss,s,0.4328429698944092,True
03,12,True,False,True,False,False,17,ss,k,0.3900339603424072,False
03,12,True,False,True,False,False,18,av,k,0.48537611961364746,True
03,12,True,False,True,False,False,19,ss,s,0.4008500576019287,True
03,12,True,False,True,False,False,20,ss,s,0.11946988105773926,True
03,12,True,False,True,False,False,21,ss,s,0.6095428466796875,True
03,12,True,False,True,False,False,22,ss,k,0.34413981437683105,False
03,12,True,False,True,False,False,23,av,k,0.36940789222717285,True
03,12,True,False,True,False,False,24,av,s,0.3133971691131592,False
03,12,True,False,True,False,False,25,ss,s,0.44381284713745117,True
03,12,True,False,True,False,False,26,ss,s,0.02550816535949707,True
03,12,True,False,True,False,False,27,ss,s,0.27916908264160156,True
03,12,True,False,True,False,False,28,ss,k,0.42738819122314453,False
03,12,True,False,True,False,False,29,av,k,0.3852710723876953,True
03,12,True,False,True,False,False,30,ss,k,0.3288111686706543,False
03,12,True,False,True,False,False,31,ss,s,0.10673689842224121,True
03,12,True,False,True,False,False,32,av,s,0.029252052307128906,False
03,12,True,False,True,False,False,33,ss,s,0.39537692070007324,True
03,12,True,False,True,False,False,34,ss,s,0.07453680038452148,True
03,12,True,False,True,False,False,35,ss,k,0.29477596282958984,False
03,12,True,False,True,False,False,36,ss,k,0.6337709426879883,False
03,12,True,False,True,False,False,37,ss,k,0.9593651294708252,False
03,12,True,False,True,False,False,38,av,k,0.496013879776001,True
03,12,True,False,True,False,False,39,ss,s,0.9713499546051025,True
03,12,True,False,True,False,False,40,ss,s,0.36320996284484863,True
03,13,True,False,True,True,True,1,ss,s,0.8741858005523682,True
03,13,True,False,True,True,True,2,ss,s,0.48589396476745605,True
03,13,True,False,True,True,True,3,ss,k,1.0250442028045654,False
03,13,True,False,True,True,True,4,av,k,0.5112781524658203,True
03,13,True,False,True,True,True,5,ss,s,0.37801599502563477,True
03,13,True,False,True,True,True,6,ss,s,0.05801701545715332,True
03,13,True,False,True,True,True,7,ss,s,0.24673891067504883,True
03,13,True,False,True,True,True,8,ss,k,0.32390403747558594,False
03,13,True,False,True,True,True,9,av,s,0.35812997817993164,False
03,13,True,False,True,True,True,10,ss,s,0.4467740058898926,True
03,13,True,False,True,True,True,11,ss,s,0.13979196548461914,True
03,13,True,False,True,True,True,12,av,s,0.35711002349853516,False
03,13,True,False,True,True,True,13,ss,s,0.3981361389160156,True
03,13,True,False,True,True,True,14,ss,s,0.1654648780822754,True
03,13,True,False,True,True,True,15,av,k,0.3018639087677002,True
03,13,True,False,True,True,True,16,ss,s,0.3528599739074707,True
03,13,True,False,True,True,True,17,ss,k,0.2893509864807129,False
03,13,True,False,True,True,True,18,ss,k,0.2528238296508789,False
03,13,True,False,True,True,True,19,ss,k,0.19277000427246094,False
03,13,True,False,True,True,True,20,sv,k,0.3768270015716553,True
03,13,True,False,True,True,True,21,ss,s,1.4247817993164062,True
03,13,True,False,True,True,True,22,ss,s,0.29479098320007324,True
03,13,True,False,True,True,True,23,ss,s,0.3537468910217285,True
03,13,True,False,True,True,True,24,ss,k,0.37080907821655273,False
03,13,True,False,True,True,True,25,av,k,0.9948410987854004,True
03,13,True,False,True,True,True,26,ss,s,0.6420319080352783,True
03,13,True,False,True,True,True,27,ss,s,0.055191993713378906,True
03,13,True,False,True,True,True,28,ss,s,0.0601351261138916,True
03,13,True,False,True,True,True,29,sv,k,0.08854508399963379,True
03,13,True,False,True,True,True,30,ss,s,0.46793484687805176,True
03,13,True,False,True,True,True,31,ss,s,0.6719930171966553,True
03,13,True,False,True,True,True,32,as,s,0.34000706672668457,False
03,13,True,False,True,True,True,33,ss,s,0.4933650493621826,True
03,13,True,False,True,True,True,34,av,s,0.32082319259643555,False
03,13,True,False,True,True,True,35,ss,s,0.45877981185913086,True
03,13,True,False,True,True,True,36,ss,k,0.3913838863372803,False
03,13,True,False,True,True,True,37,ss,k,0.11060500144958496,False
03,13,True,False,True,True,True,38,av,k,0.06549906730651855,True
03,13,True,False,True,True,True,39,ss,s,0.39804506301879883,True
03,13,True,False,True,True,True,40,ss,s,1.0612871646881104,True
03,14,False,True,True,True,True,1,ss,s,1.364912986755371,True
03,14,False,True,True,True,True,2,ss,k,0.2212200164794922,False
03,14,False,True,True,True,True,3,av,s,0.5073590278625488,False
03,14,False,True,True,True,True,4,ss,s,0.4060251712799072,True
03,14,False,True,True,True,True,5,sv,s,0.30082201957702637,False
03,14,False,True,True,True,True,6,ss,s,0.5513780117034912,True
03,14,False,True,True,True,True,7,ss,s,0.6798679828643799,True
03,14,False,True,True,True,True,8,ss,k,0.39603495597839355,False
03,14,False,True,True,True,True,9,av,k,0.3953590393066406,True
03,14,False,True,True,True,True,10,ss,s,0.4668080806732178,True
03,14,False,True,True,True,True,11,sv,s,0.41478896141052246,False
03,14,False,True,True,True,True,12,ss,s,0.6613590717315674,True
03,14,False,True,True,True,True,13,ss,s,0.1700448989868164,True
03,14,False,True,True,True,True,14,ss,k,0.39406394958496094,False
03,14,False,True,True,True,True,15,ss,k,0.2732100486755371,False
03,14,False,True,True,True,True,16,ss,k,0.2453598976135254,False
03,14,False,True,True,True,True,17,sv,k,0.6187059879302979,True
03,14,False,True,True,True,True,18,ss,s,0.7767961025238037,True
03,14,False,True,True,True,True,19,ss,k,0.36878180503845215,False
03,14,False,True,True,True,True,20,ss,s,0.26482701301574707,True
03,14,False,True,True,True,True,21,ss,k,0.3333749771118164,False
03,14,False,True,True,True,True,22,ss,k,0.3668029308319092,False
03,14,False,True,True,True,True,23,as,k,0.5507810115814209,True
03,14,False,True,True,True,True,24,ss,s,0.6153659820556641,True
03,14,False,True,True,True,True,25,ss,s,0.24611783027648926,True
03,14,False,True,True,True,True,26,ss,s,0.2914559841156006,True
03,14,False,True,True,True,True,27,ss,s,0.38283801078796387,True
03,14,False,True,True,True,True,28,av,k,0.3901550769805908,True
03,14,False,True,True,True,True,29,ss,s,0.3973581790924072,True
03,14,False,True,True,True,True,30,ss,s,0.11657190322875977,True
03,14,False,True,True,True,True,31,ss,s,0.4148130416870117,True
03,14,False,True,True,True,True,32,ss,k,0.38138699531555176,False
03,14,False,True,True,True,True,33,sv,k,0.22121810913085938,True
03,14,False,True,True,True,True,34,ss,s,0.35537195205688477,True
03,14,False,True,True,True,True,35,as,s,0.04402303695678711,False
03,14,False,True,True,True,True,36,ss,s,0.2814779281616211,True
03,14,False,True,True,True,True,37,ss,s,0.2533550262451172,True
03,14,False,True,True,True,True,38,ss,s,0.38602590560913086,True
03,14,False,True,True,True,True,39,av,s,0.31340694427490234,False
03,14,False,True,True,True,True,40,ss,s,0.3401319980621338,True
03,15,False,True,True,True,True,1,sv,s,1.4441211223602295,False
03,15,False,True,True,True,True,2,ss,s,0.4570891857147217,True
03,15,False,True,True,True,True,3,ss,s,0.15003681182861328,True
03,15,False,True,True,True,True,4,ss,s,0.3267788887023926,True
03,15,False,True,True,True,True,5,sv,k,0.2247622013092041,True
03,15,False,True,True,True,True,6,sv,s,0.4227738380432129,False
03,15,False,True,True,True,True,7,ss,s,0.37276792526245117,True
03,15,False,True,True,True,True,8,as,s,0.32475709915161133,False
03,15,False,True,True,True,True,9,ss,s,0.30261802673339844,True
03,15,False,True,True,True,True,10,ss,s,0.31330108642578125,True
03,15,False,True,True,True,True,11,ss,s,0.5640449523925781,True
03,15,False,True,True,True,True,12,av,k,0.3567819595336914,True
03,15,False,True,True,True,True,13,ss,s,0.3174729347229004,True
03,15,False,True,True,True,True,14,ss,s,0.5594189167022705,True
03,15,False,True,True,True,True,15,av,k,0.3201119899749756,True
03,15,False,True,True,True,True,16,ss,s,0.2900071144104004,True
03,15,False,True,True,True,True,17,ss,k,0.37334394454956055,False
03,15,False,True,True,True,True,18,ss,k,0.22921299934387207,False
03,15,False,True,True,True,True,19,sv,k,0.23541498184204102,True
03,15,False,True,True,True,True,20,ss,s,0.2967710494995117,True
03,15,False,True,True,True,True,21,sv,s,0.1317911148071289,False
03,15,False,True,True,True,True,22,ss,s,0.3100438117980957,True
03,15,False,True,True,True,True,23,ss,s,0.12083697319030762,True
03,15,False,True,True,True,True,24,ss,k,0.38682103157043457,False
03,15,False,True,True,True,True,25,ss,k,0.3057851791381836,False
03,15,False,True,True,True,True,26,av,k,0.6687579154968262,True
03,15,False,True,True,True,True,27,ss,s,0.4488520622253418,True
03,15,False,True,True,True,True,28,ss,s,0.12600302696228027,True
03,15,False,True,True,True,True,29,as,s,0.3038959503173828,False
03,15,False,True,True,True,True,30,ss,s,0.33077502250671387,True
03,15,False,True,True,True,True,31,ss,s,0.2927670478820801,True
03,15,False,True,True,True,True,32,ss,s,0.2960538864135742,True
03,15,False,True,True,True,True,33,ss,k,0.35529279708862305,False
03,15,False,True,True,True,True,34,ss,k,0.45211291313171387,False
03,15,False,True,True,True,True,35,as,k,0.4727590084075928,True
03,15,False,True,True,True,True,36,ss,s,0.43683695793151855,True
03,15,False,True,True,True,True,37,sv,s,0.4100639820098877,False
03,15,False,True,True,True,True,38,ss,s,0.46478986740112305,True
03,15,False,True,True,True,True,39,ss,s,0.8934509754180908,True
03,15,False,True,True,True,True,40,ss,s,0.4568018913269043,True
03,16,False,True,True,True,True,1,ss,s,1.5081138610839844,True
03,16,False,True,True,True,True,2,ss,k,0.30289387702941895,False
03,16,False,True,True,True,True,3,sv,k,0.28884387016296387,True
03,16,False,True,True,True,True,4,ss,s,0.36474013328552246,True
03,16,False,True,True,True,True,5,sv,s,0.3333110809326172,False
03,16,False,True,True,True,True,6,ss,s,0.5267949104309082,True
03,16,False,True,True,True,True,7,as,s,0.3127419948577881,False
03,16,False,True,True,True,True,8,ss,s,0.35546183586120605,True
03,16,False,True,True,True,True,9,ss,k,0.3880448341369629,False
03,16,False,True,True,True,True,10,as,k,0.451416015625,True
03,16,False,True,True,True,True,11,ss,s,0.32813501358032227,True
03,16,False,True,True,True,True,12,ss,k,0.41005802154541016,False
03,16,False,True,True,True,True,13,ss,k,0.4168381690979004,False
03,16,False,True,True,True,True,14,ss,s,0.39075493812561035,True
03,16,False,True,True,True,True,15,av,k,0.37402987480163574,True
03,16,False,True,True,True,True,16,ss,s,0.43806004524230957,True
03,16,False,True,True,True,True,17,ss,s,0.715425968170166,True
03,16,False,True,True,True,True,18,ss,s,0.35805583000183105,True
03,16,False,True,True,True,True,19,ss,k,0.2706010341644287,False
03,16,False,True,True,True,True,20,ss,k,0.3627049922943115,False
03,16,False,True,True,True,True,21,as,k,0.6115000247955322,True
03,16,False,True,True,True,True,22,ss,s,0.32979297637939453,True
03,16,False,True,True,True,True,23,ss,s,0.29191017150878906,True
03,16,False,True,True,True,True,24,ss,s,0.3274059295654297,True
03,16,False,True,True,True,True,25,ss,k,0.31345200538635254,False
03,16,False,True,True,True,True,26,ss,k,0.308060884475708,False
03,16,False,True,True,True,True,27,av,k,0.4228808879852295,True
03,16,False,True,True,True,True,28,ss,s,0.5727770328521729,True
03,16,False,True,True,True,True,29,sv,s,0.268887996673584,False
03,16,False,True,True,True,True,30,ss,s,0.8808000087738037,True
03,16,False,True,True,True,True,31,sv,k,0.5966229438781738,True
03,16,False,True,True,True,True,32,ss,s,0.5561490058898926,True
03,16,False,True,True,True,True,33,av,s,0.3646891117095947,False
03,16,False,True,True,True,True,34,ss,s,0.3414468765258789,True
03,16,False,True,True,True,True,35,ss,k,0.9826669692993164,False
03,16,False,True,True,True,True,36,ss,s,0.469865083694458,True
03,16,False,True,True,True,True,37,ss,k,0.45018696784973145,False
03,16,False,True,True,True,True,38,ss,s,0.15877699851989746,True
03,16,False,True,True,True,True,39,as,k,0.575171947479248,True
03,16,False,True,True,True,True,40,ss,s,0.3834249973297119,True
03,17,False,True,True,True,True,1,av,s,0.690147876739502,False
03,17,False,True,True,True,True,2,ss,s,0.3254430294036865,True
03,17,False,True,True,True,True,3,as,s,0.831732988357544,False
03,17,False,True,True,True,True,4,ss,s,0.40543198585510254,True
03,17,False,True,True,True,True,5,ss,k,0.30018186569213867,False
03,17,False,True,True,True,True,6,sv,k,0.302764892578125,True
03,17,False,True,True,True,True,7,ss,s,0.34543895721435547,True
03,17,False,True,True,True,True,8,av,s,0.290895938873291,False
03,17,False,True,True,True,True,9,ss,s,0.3262159824371338,True
03,17,False,True,True,True,True,10,sv,s,1.352051019668579,False
03,17,False,True,True,True,True,11,ss,s,0.6567699909210205,True
03,17,False,True,True,True,True,12,av,k,0.3334338665008545,True
03,17,False,True,True,True,True,13,av,s,0.38277316093444824,False
03,17,False,True,True,True,True,14,av,s,0.6381511688232422,False
03,17,False,True,True,True,True,15,ss,k,0.49143004417419434,False
03,17,False,True,True,True,True,16,ss,k,0.21454381942749023,False
03,17,False,True,True,True,True,17,ss,s,0.373445987701416,True
03,17,False,True,True,True,True,18,as,s,0.38945913314819336,False
03,17,False,True,True,True,True,19,ss,s,0.3088850975036621,True
03,17,False,True,True,True,True,20,ss,s,0.31150293350219727,True
03,17,False,True,True,True,True,21,sv,s,0.33005309104919434,False
03,17,False,True,True,True,True,22,ss,k,0.7240860462188721,False
03,17,False,True,True,True,True,23,sv,k,1.2859108448028564,True
03,17,False,True,True,True,True,24,ss,s,0.6974930763244629,True
03,17,False,True,True,True,True,25,sv,s,0.34883999824523926,False
03,17,False,True,True,True,True,26,ss,s,0.3499619960784912,True
03,17,False,True,True,True,True,27,ss,k,0.4787600040435791,False
03,17,False,True,True,True,True,28,ss,s,0.3068530559539795,True
03,17,False,True,True,True,True,29,av,k,0.2932569980621338,True
03,17,False,True,True,True,True,30,ss,k,0.3688509464263916,False
03,17,False,True,True,True,True,31,as,s,0.03280305862426758,False
03,17,False,True,True,True,True,32,as,s,0.8381650447845459,False
03,17,False,True,True,True,True,33,ss,s,0.499208927154541,True
03,17,False,True,True,True,True,34,ss,k,0.35008978843688965,False
03,17,False,True,True,True,True,35,ss,s,0.8388609886169434,True
03,17,False,True,True,True,True,36,ss,k,0.6118829250335693,False
03,17,False,True,True,True,True,37,ss,k,0.36284685134887695,False
03,17,False,True,True,True,True,38,ss,k,0.2835121154785156,False
03,17,False,True,True,True,True,39,as,s,0.4467751979827881,False
03,17,False,True,True,True,True,40,ss,s,0.49208879470825195,True
03,18,True,False,True,True,True,1,ss,s,0.7450599670410156,True
03,18,True,False,True,True,True,2,ss,s,0.3461489677429199,True
03,18,True,False,True,True,True,3,ss,k,0.3474891185760498,False
03,18,True,False,True,True,True,4,av,k,0.4047551155090332,True
03,18,True,False,True,True,True,5,ss,s,0.3152930736541748,True
03,18,True,False,True,True,True,6,ss,s,0.28610992431640625,True
03,18,True,False,True,True,True,7,ss,s,0.36931800842285156,True
03,18,True,False,True,True,True,8,av,k,0.40945005416870117,True
03,18,True,False,True,True,True,9,ss,s,0.2879059314727783,True
03,18,True,False,True,True,True,10,ss,s,0.21123409271240234,True
03,18,True,False,True,True,True,11,av,s,0.3219618797302246,False
03,18,True,False,True,True,True,12,ss,s,0.3401179313659668,True
03,18,True,False,True,True,True,13,av,s,0.3734769821166992,False
03,18,True,False,True,True,True,14,av,s,0.31719493865966797,False
03,18,True,False,True,True,True,15,ss,s,1.3675501346588135,True
03,18,True,False,True,True,True,16,ss,k,0.32741308212280273,False
03,18,True,False,True,True,True,17,sv,k,0.39347004890441895,True
03,18,True,False,True,True,True,18,ss,s,0.35272884368896484,True
03,18,True,False,True,True,True,19,ss,s,0.32943296432495117,True
03,18,True,False,True,True,True,20,ss,s,0.3234739303588867,True
03,18,True,False,True,True,True,21,ss,k,0.41344499588012695,False
03,18,True,False,True,True,True,22,av,k,0.40408897399902344,True
03,18,True,False,True,True,True,23,ss,s,0.3948848247528076,True
03,18,True,False,True,True,True,24,ss,s,0.22622299194335938,True
03,18,True,False,True,True,True,25,ss,k,0.4241518974304199,False
03,18,True,False,True,True,True,26,ss,k,0.3260188102722168,False
03,18,True,False,True,True,True,27,sv,k,0.3360309600830078,True
03,18,True,False,True,True,True,28,sv,s,0.46509814262390137,False
03,18,True,False,True,True,True,29,ss,s,0.7019970417022705,True
03,18,True,False,True,True,True,30,ss,s,0.3128018379211426,True
03,18,True,False,True,True,True,31,ss,s,0.2834200859069824,True
03,18,True,False,True,True,True,32,ss,k,0.2867250442504883,False
03,18,True,False,True,True,True,33,as,k,0.2738161087036133,True
03,18,True,False,True,True,True,34,as,s,0.30203890800476074,False
03,18,True,False,True,True,True,35,ss,s,0.3928229808807373,True
03,18,True,False,True,True,True,36,ss,s,0.3041098117828369,True
03,18,True,False,True,True,True,37,ss,s,0.6104650497436523,True
03,18,True,False,True,True,True,38,as,k,0.3534359931945801,True
03,18,True,False,True,True,True,39,as,s,0.30623602867126465,False
03,18,True,False,True,True,True,40,ss,k,0.25249600410461426,False
03,19,True,False,True,True,True,1,as,s,0.7068431377410889,False
03,19,True,False,True,True,True,2,ss,s,0.3733639717102051,True
03,19,True,False,True,True,True,3,ss,k,0.28541111946105957,False
03,19,True,False,True,True,True,4,ss,k,0.40071606636047363,False
03,19,True,False,True,True,True,5,ss,s,0.6554319858551025,True
03,19,True,False,True,True,True,6,ss,s,0.5161221027374268,True
03,19,True,False,True,True,True,7,av,k,1.134063959121704,True
03,19,True,False,True,True,True,8,ss,s,0.9114339351654053,True
03,19,True,False,True,True,True,9,as,s,0.7380571365356445,False
03,19,True,False,True,True,True,10,ss,s,0.50736403465271,True
03,19,True,False,True,True,True,11,ss,s,1.030174970626831,True
03,19,True,False,True,True,True,12,ss,k,0.43608999252319336,False
03,19,True,False,True,True,True,13,av,k,0.39343905448913574,True
03,19,True,False,True,True,True,14,ss,s,0.6486320495605469,True
03,19,True,False,True,True,True,15,ss,s,0.4460780620574951,True
03,19,True,False,True,True,True,16,ss,s,0.29919886589050293,True
03,19,True,False,True,True,True,17,sv,k,0.4780740737915039,True
03,19,True,False,True,True,True,18,ss,k,0.7699100971221924,False
03,19,True,False,True,True,True,19,ss,s,0.19383788108825684,True
03,19,True,False,True,True,True,20,ss,s,0.3214869499206543,True
03,19,True,False,True,True,True,21,av,k,0.3394901752471924,True
03,19,True,False,True,True,True,22,ss,s,0.45273804664611816,True
03,19,True,False,True,True,True,23,ss,s,0.2574641704559326,True
03,19,True,False,True,True,True,24,ss,s,0.2941300868988037,True
03,19,True,False,True,True,True,25,ss,k,0.2895219326019287,False
03,19,True,False,True,True,True,26,av,k,0.5007350444793701,True
03,19,True,False,True,True,True,27,ss,s,0.32723402976989746,True
03,19,True,False,True,True,True,28,ss,s,0.2815110683441162,True
03,19,True,False,True,True,True,29,ss,s,0.5092871189117432,True
03,19,True,False,True,True,True,30,as,k,0.4080960750579834,True
03,19,True,False,True,True,True,31,ss,s,0.3668251037597656,True
03,19,True,False,True,True,True,32,ss,s,0.2228400707244873,True
03,19,True,False,True,True,True,33,ss,s,0.2687349319458008,True
03,19,True,False,True,True,True,34,ss,k,0.22469711303710938,False
03,19,True,False,True,True,True,35,sv,k,0.37474703788757324,True
03,19,True,False,True,True,True,36,ss,s,0.48688817024230957,True
03,19,True,False,True,True,True,37,ss,s,0.34608983993530273,True
03,19,True,False,True,True,True,38,as,s,0.5234758853912354,False
03,19,True,False,True,True,True,39,ss,s,0.39751100540161133,True
03,19,True,False,True,True,True,40,ss,s,0.33267784118652344,True
03,20,False,True,True,True,True,1,ss,s,1.9302620887756348,True
03,20,False,True,True,True,True,2,as,s,0.43607091903686523,False
03,20,False,True,True,True,True,3,ss,s,0.41748499870300293,True
03,20,False,True,True,True,True,4,ss,s,0.38355493545532227,True
03,20,False,True,True,True,True,5,as,s,1.3587889671325684,False
03,20,False,True,True,True,True,6,as,s,0.4235241413116455,False
03,20,False,True,True,True,True,7,ss,s,0.43750596046447754,True
03,20,False,True,True,True,True,8,as,s,0.33888697624206543,False
03,20,False,True,True,True,True,9,ss,s,0.31592416763305664,True
03,20,False,True,True,True,True,10,sv,s,0.39809584617614746,False
03,20,False,True,True,True,True,11,ss,s,0.5092408657073975,True
03,20,False,True,True,True,True,12,as,k,0.2802398204803467,True
03,20,False,True,True,True,True,13,ss,k,0.3001439571380615,False
03,20,False,True,True,True,True,14,ss,s,0.3347787857055664,True
03,20,False,True,True,True,True,15,ss,k,0.0002880096435546875,False
03,20,False,True,True,True,True,16,av,k,0.38291406631469727,True
03,20,False,True,True,True,True,17,av,s,0.2862529754638672,False
03,20,False,True,True,True,True,18,ss,s,0.4248840808868408,True
03,20,False,True,True,True,True,19,ss,s,0.3034989833831787,True
03,20,False,True,True,True,True,20,ss,k,0.3297710418701172,False
03,20,False,True,True,True,True,21,ss,k,0.3241539001464844,False
03,20,False,True,True,True,True,22,ss,k,0.23013687133789062,False
03,20,False,True,True,True,True,23,ss,k,0.6679391860961914,False
03,20,False,True,True,True,True,24,ss,k,0.3681349754333496,False
03,20,False,True,True,True,True,25,as,k,0.4640200138092041,True
03,20,False,True,True,True,True,26,ss,s,0.47676610946655273,True
03,20,False,True,True,True,True,27,ss,s,0.3285989761352539,True
03,20,False,True,True,True,True,28,ss,k,0.3547639846801758,False
03,20,False,True,True,True,True,29,av,s,0.4035298824310303,False
03,20,False,True,True,True,True,30,ss,s,0.4581000804901123,True
03,20,False,True,True,True,True,31,ss,s,0.1828761100769043,True
03,20,False,True,True,True,True,32,ss,s,0.2861599922180176,True
03,20,False,True,True,True,True,33,ss,k,0.368847131729126,False
03,20,False,True,True,True,True,34,ss,k,0.3611719608306885,False
03,20,False,True,True,True,True,35,ss,s,0.2741119861602783,True
03,20,False,True,True,True,True,36,ss,k,0.3662269115447998,False
03,20,False,True,True,True,True,37,ss,k,0.5738461017608643,False
03,20,False,True,True,True,True,38,ss,s,0.3901350498199463,True
03,20,False,True,True,True,True,39,ss,k,1.589522123336792,False
03,20,False,True,True,True,True,40,as,s,0.6447939872741699,False
03,21,False,True,True,True,True,1,ss,s,1.375499963760376,True
03,21,False,True,True,True,True,2,ss,s,0.7354719638824463,True
03,21,False,True,True,True,True,3,ss,s,0.32079410552978516,True
03,21,False,True,True,True,True,4,ss,k,0.3387570381164551,False
03,21,False,True,True,True,True,5,ss,s,0.31586599349975586,True
03,21,False,True,True,True,True,6,ss,k,0.3418409824371338,False
03,21,False,True,True,True,True,7,ss,s,0.5275020599365234,True
03,21,False,True,True,True,True,8,ss,s,0.31353306770324707,True
03,21,False,True,True,True,True,9,ss,s,0.2038729190826416,True
03,21,False,True,True,True,True,10,sv,k,0.25876688957214355,True
03,21,False,True,True,True,True,11,ss,s,0.3274800777435303,True
03,21,False,True,True,True,True,12,ss,s,0.28151607513427734,True
03,21,False,True,True,True,True,13,sv,s,0.2775449752807617,False
03,21,False,True,True,True,True,14,sv,s,0.40924501419067383,False
03,21,False,True,True,True,True,15,ss,s,0.624053955078125,True
03,21,False,True,True,True,True,16,av,s,0.014340877532958984,False
03,21,False,True,True,True,True,17,ss,s,0.53289794921875,True
03,21,False,True,True,True,True,18,as,s,0.41403889656066895,False
03,21,False,True,True,True,True,19,ss,s,0.4126718044281006,True
03,21,False,True,True,True,True,20,ss,k,0.47558116912841797,False
03,21,False,True,True,True,True,21,as,k,0.40761399269104004,True
03,21,False,True,True,True,True,22,ss,s,0.2779700756072998,True
03,21,False,True,True,True,True,23,ss,s,0.37023019790649414,True
03,21,False,True,True,True,True,24,ss,k,0.322145938873291,False
03,21,False,True,True,True,True,25,ss,k,0.3241279125213623,False
03,21,False,True,True,True,True,26,ss,k,0.3181569576263428,False
03,21,False,True,True,True,True,27,as,s,0.30416107177734375,False
03,21,False,True,True,True,True,28,ss,s,0.4587230682373047,True
03,21,False,True,True,True,True,29,ss,s,0.34357595443725586,True
03,21,False,True,True,True,True,30,ss,s,0.4087870121002197,True
03,21,False,True,True,True,True,31,as,k,0.5115540027618408,True
03,21,False,True,True,True,True,32,ss,s,0.3381321430206299,True
03,21,False,True,True,True,True,33,sv,k,0.4274590015411377,True
03,21,False,True,True,True,True,34,ss,s,0.441619873046875,True
03,21,False,True,True,True,True,35,as,k,0.35883498191833496,True
03,21,False,True,True,True,True,36,ss,s,0.27956485748291016,True
03,21,False,True,True,True,True,37,sv,k,0.29956698417663574,True
03,21,False,True,True,True,True,38,sv,s,0.3821451663970947,False
03,21,False,True,True,True,True,39,sv,s,0.6381220817565918,False
03,21,False,True,True,True,True,40,sv,k,0.4515209197998047,True
03,22,True,False,True,True,True,1,ss,s,0.6709470748901367,True
03,22,True,False,True,True,True,2,ss,k,0.14687800407409668,False
03,22,True,False,True,True,True,3,ss,s,0.5801010131835938,True
03,22,True,False,True,True,True,4,av,k,0.46006298065185547,True
03,22,True,False,True,True,True,5,ss,s,0.3687760829925537,True
03,22,True,False,True,True,True,6,ss,s,0.4168870449066162,True
03,22,True,False,True,True,True,7,ss,k,0.65460205078125,False
03,22,True,False,True,True,True,8,sv,k,0.3795349597930908,True
03,22,True,False,True,True,True,9,ss,s,0.5635809898376465,True
03,22,True,False,True,True,True,10,ss,s,0.3320770263671875,True
03,22,True,False,True,True,True,11,av,s,0.36615490913391113,False
03,22,True,False,True,True,True,12,ss,s,0.40586113929748535,True
03,22,True,False,True,True,True,13,sv,s,0.28473997116088867,False
03,22,True,False,True,True,True,14,ss,s,0.4720640182495117,True
03,22,True,False,True,True,True,15,ss,k,0.3318347930908203,False
03,22,True,False,True,True,True,16,ss,k,0.5102269649505615,False
03,22,True,False,True,True,True,17,ss,s,0.3528139591217041,True
03,22,True,False,True,True,True,18,av,s,0.3375358581542969,False
03,22,True,False,True,True,True,19,ss,s,0.37877893447875977,True
03,22,True,False,True,True,True,20,ss,k,0.4265451431274414,False
03,22,True,False,True,True,True,21,ss,k,0.5127770900726318,False
03,22,True,False,True,True,True,22,ss,k,0.3715188503265381,False
03,22,True,False,True,True,True,23,as,s,1.0833261013031006,False
03,22,True,False,True,True,True,24,as,s,0.6387860774993896,False
03,22,True,False,True,True,True,25,ss,s,0.6521220207214355,True
03,22,True,False,True,True,True,26,ss,s,0.5287530422210693,True
03,22,True,False,True,True,True,27,ss,s,0.3627810478210449,True
03,22,True,False,True,True,True,28,ss,s,0.32355213165283203,True
03,22,True,False,True,True,True,29,av,k,0.5255601406097412,True
03,22,True,False,True,True,True,30,ss,k,0.5675041675567627,False
03,22,True,False,True,True,True,31,ss,s,0.3275430202484131,True
03,22,True,False,True,True,True,32,ss,s,0.28132009506225586,True
03,22,True,False,True,True,True,33,ss,s,0.25356197357177734,True
03,22,True,False,True,True,True,34,av,k,0.4341421127319336,True
03,22,True,False,True,True,True,35,ss,k,0.5353448390960693,False
03,22,True,False,True,True,True,36,ss,s,0.0568079948425293,True
03,22,True,False,True,True,True,37,ss,s,0.2373189926147461,True
03,22,True,False,True,True,True,38,as,s,0.2826991081237793,False
03,22,True,False,True,True,True,39,ss,k,0.5020530223846436,False
03,22,True,False,True,True,True,40,ss,s,0.12887096405029297,True
03,23,True,False,True,True,True,1,ss,s,1.0435400009155273,True
03,23,True,False,True,True,True,2,ss,s,0.3687419891357422,True
03,23,True,False,True,True,True,3,ss,s,0.3447248935699463,True
03,23,True,False,True,True,True,4,av,k,0.3781440258026123,True
03,23,True,False,True,True,True,5,ss,s,0.5382130146026611,True
03,23,True,False,True,True,True,6,ss,s,0.26728010177612305,True
03,23,True,False,True,True,True,7,ss,s,0.27954697608947754,True
03,23,True,False,True,True,True,8,ss,k,0.3155660629272461,False
03,23,True,False,True,True,True,9,sv,k,0.19018912315368652,True
03,23,True,False,True,True,True,10,ss,s,0.35758113861083984,True
03,23,True,False,True,True,True,11,ss,s,0.27811098098754883,True
03,23,True,False,True,True,True,12,ss,s,0.290132999420166,True
03,23,True,False,True,True,True,13,ss,k,0.317612886428833,False
03,23,True,False,True,True,True,14,sv,k,0.39955782890319824,True
03,23,True,False,True,True,True,15,ss,s,0.3659179210662842,True
03,23,True,False,True,True,True,16,ss,s,0.19007205963134766,True
03,23,True,False,True,True,True,17,ss,s,0.2775561809539795,True
03,23,True,False,True,True,True,18,av,k,0.40157103538513184,True
03,23,True,False,True,True,True,19,ss,s,0.2560460567474365,True
03,23,True,False,True,True,True,20,ss,s,0.276792049407959,True
03,23,True,False,True,True,True,21,ss,s,0.2728109359741211,True
03,23,True,False,True,True,True,22,as,k,0.09287905693054199,True
03,23,True,False,True,True,True,23,ss,s,0.24814391136169434,True
03,23,True,False,True,True,True,24,ss,s,0.21355795860290527,True
03,23,True,False,True,True,True,25,ss,s,0.24402093887329102,True
03,23,True,False,True,True,True,26,as,k,0.20957589149475098,True
03,23,True,False,True,True,True,27,ss,s,0.01638484001159668,True
03,23,True,False,True,True,True,28,ss,s,0.13420701026916504,True
03,23,True,False,True,True,True,29,ss,s,0.01582503318786621,True
03,23,True,False,True,True,True,30,ss,k,0.47754502296447754,False
03,23,True,False,True,True,True,31,av,k,0.3291308879852295,True
03,23,True,False,True,True,True,32,ss,s,0.34762001037597656,True
03,23,True,False,True,True,True,33,as,s,0.2928280830383301,False
03,23,True,False,True,True,True,34,ss,s,0.4958839416503906,True
03,23,True,False,True,True,True,35,ss,s,0.3396000862121582,True
03,23,True,False,True,True,True,36,as,k,0.33277201652526855,True
03,23,True,False,True,True,True,37,as,s,0.31813788414001465,False
03,23,True,False,True,True,True,38,ss,s,0.3759288787841797,True
03,23,True,False,True,True,True,39,ss,s,0.36812496185302734,True
03,23,True,False,True,True,True,40,ss,k,0.440155029296875,False
03,24,True,False,True,True,True,1,ss,s,1.3497669696807861,True
03,24,True,False,True,True,True,2,ss,s,0.20682597160339355,True
03,24,True,False,True,True,True,3,as,k,0.2694871425628662,True
03,24,True,False,True,True,True,4,ss,s,0.5055220127105713,True
03,24,True,False,True,True,True,5,av,s,0.3080720901489258,False
03,24,True,False,True,True,True,6,ss,s,0.5268409252166748,True
03,24,True,False,True,True,True,7,as,k,0.41693711280822754,True
03,24,True,False,True,True,True,8,ss,s,0.3427920341491699,True
03,24,True,False,True,True,True,9,ss,s,0.31218910217285156,True
03,24,True,False,True,True,True,10,av,s,0.29891109466552734,False
03,24,True,False,True,True,True,11,av,s,0.48627305030822754,False
03,24,True,False,True,True,True,12,ss,s,0.3535959720611572,True
03,24,True,False,True,True,True,13,ss,s,0.24207592010498047,True
03,24,True,False,True,True,True,14,ss,s,0.22357988357543945,True
03,24,True,False,True,True,True,15,ss,k,0.47752904891967773,False
03,24,True,False,True,True,True,16,ss,k,0.24928903579711914,False
03,24,True,False,True,True,True,17,av,k,0.33383989334106445,True
03,24,True,False,True,True,True,18,ss,s,0.8876149654388428,True
03,24,True,False,True,True,True,19,ss,s,0.29082202911376953,True
03,24,True,False,True,True,True,20,av,s,0.2701070308685303,False
03,24,True,False,True,True,True,21,av,s,0.40999317169189453,False
03,24,True,False,True,True,True,22,ss,s,0.42492079734802246,True
03,24,True,False,True,True,True,23,av,s,0.26281094551086426,False
03,24,True,False,True,True,True,24,ss,s,0.5875940322875977,True
03,24,True,False,True,True,True,25,ss,s,0.2988278865814209,True
03,24,True,False,True,True,True,26,ss,k,0.4462430477142334,False
03,24,True,False,True,True,True,27,ss,s,0.2835860252380371,True
03,24,True,False,True,True,True,28,av,k,0.3588840961456299,True
03,24,True,False,True,True,True,29,ss,k,0.40746188163757324,False
03,24,True,False,True,True,True,30,av,s,0.44609618186950684,False
03,24,True,False,True,True,True,31,ss,s,0.5315909385681152,True
03,24,True,False,True,True,True,32,ss,s,0.2535371780395508,True
03,24,True,False,True,True,True,33,ss,k,0.6978850364685059,False
03,24,True,False,True,True,True,34,ss,k,0.3812680244445801,False
03,24,True,False,True,True,True,35,av,k,0.34134507179260254,True
03,24,True,False,True,True,True,36,av,s,0.31051111221313477,False
03,24,True,False,True,True,True,37,ss,s,0.4170680046081543,True
03,24,True,False,True,True,True,38,ss,s,0.2876119613647461,True
03,24,True,False,True,True,True,39,ss,k,0.4347188472747803,False
03,24,True,False,True,True,True,40,sv,s,0.3759040832519531,False
