participant_id,block_num,dynamic,static,av,sv,as,trial,state,response,rt,correct
02,1,False,True,False,False,True,1,as,s,2.6827220916748047,False
02,1,False,True,False,False,True,2,ss,s,0.9977519512176514,True
02,1,False,True,False,False,True,3,ss,k,1.8770990371704102,False
02,1,False,True,False,False,True,4,ss,s,1.953096866607666,True
02,1,False,True,False,False,True,5,ss,s,1.2416980266571045,True
02,1,False,True,False,False,True,6,ss,s,1.1831388473510742,True
02,1,False,True,False,False,True,7,ss,s,1.510434865951538,True
02,1,False,True,False,False,True,8,as,s,1.1530420780181885,False
02,1,False,True,False,False,True,9,ss,k,0.6497080326080322,False
02,1,False,True,False,False,True,10,ss,s,0.6783580780029297,True
02,1,False,True,False,False,True,11,as,s,0.9304091930389404,False
02,1,False,True,False,False,True,12,ss,k,4.372453927993774,False
02,1,False,True,False,False,True,13,ss,s,1.5964758396148682,True
02,1,False,True,False,False,True,14,ss,s,0.6758120059967041,True
02,1,False,True,False,False,True,15,ss,s,0.8315689563751221,True
02,1,False,True,False,False,True,16,ss,s,0.7256679534912109,True
02,1,False,True,False,False,True,17,as,s,0.6555299758911133,False
02,1,False,True,False,False,True,18,ss,k,1.7244510650634766,False
02,1,False,True,False,False,True,19,ss,s,0.3824748992919922,True
02,1,False,True,False,False,True,20,as,s,0.2297818660736084,False
02,1,False,True,False,False,True,21,as,k,2.947787046432495,True
02,1,False,True,False,False,True,22,ss,k,1.189056158065796,False
02,1,False,True,False,False,True,23,ss,s,0.8444550037384033,True
02,1,False,True,False,False,True,24,ss,s,1.1536929607391357,True
02,1,False,True,False,False,True,25,ss,s,1.1143388748168945,True
02,1,False,True,False,False,True,26,as,s,1.0931260585784912,False
02,1,False,True,False,False,True,27,ss,s,1.7441918849945068,True
02,1,False,True,False,False,True,28,ss,s,1.5056240558624268,True
02,1,False,True,False,False,True,29,ss,s,1.3883039951324463,True
02,1,False,True,False,False,True,30,ss,s,0.9237020015716553,True
02,1,False,True,False,False,True,31,ss,k,0.54168701171875,False
02,1,False,True,False,False,True,32,as,s,0.495211124420166,False
02,1,False,True,False,False,True,33,ss,s,1.442425012588501,True
02,1,False,True,False,False,True,34,ss,s,0.6717410087585449,True
02,1,False,True,False,False,True,35,ss,s,1.003720998764038,True
02,1,False,True,False,False,True,36,ss,s,1.3704750537872314,True
02,1,False,True,False,False,True,37,as,k,0.5544300079345703,True
02,1,False,True,False,False,True,38,ss,s,0.4110429286956787,True
02,1,False,True,False,False,True,39,ss,s,0.4497401714324951,True
02,1,False,True,False,False,True,40,ss,k,1.382431983947754,False
02,2,False,True,False,False,True,1,ss,s,1.8105170726776123,True
02,2,False,True,False,False,True,2,as,s,1.1211540699005127,False
02,2,False,True,False,False,True,3,as,s,2.0910398960113525,False
02,2,False,True,False,False,True,4,ss,k,0.5267899036407471,False
02,2,False,True,False,False,True,5,as,s,0.6242678165435791,False
02,2,False,True,False,False,True,6,ss,k,3.838369846343994,False
02,2,False,True,False,False,True,7,as,k,0.8437559604644775,True
02,2,False,True,False,False,True,8,ss,k,0.7211239337921143,False
02,2,False,True,False,False,True,9,as,k,2.4910330772399902,True
02,2,False,True,False,False,True,10,ss,s,0.4142649173736572,True
02,2,False,True,False,False,True,11,ss,k,0.5331389904022217,False
02,2,False,True,False,False,True,12,ss,k,0.6303110122680664,False
02,2,False,True,False,False,True,13,ss,k,1.3163728713989258,False
02,2,False,True,False,False,True,14,ss,s,0.5504369735717773,True
02,2,False,True,False,False,True,15,ss,s,1.063011884689331,True
02,2,False,True,False,False,True,16,ss,k,0.995715856552124,False
02,2,False,True,False,False,True,17,ss,s,0.6110129356384277,True
02,2,False,True,False,False,True,18,ss,s,0.5299439430236816,True
02,2,False,True,False,False,True,19,ss,s,0.9637510776519775,True
02,2,False,True,False,False,True,20,ss,s,0.5644469261169434,True
02,2,False,True,False,False,True,21,as,s,0.8848850727081299,False
02,2,False,True,False,False,True,22,ss,s,0.6482760906219482,True
02,2,False,True,False,False,True,23,ss,s,0.5497329235076904,True
02,2,False,True,False,False,True,24,ss,s,0.21445488929748535,True
02,2,False,True,False,False,True,25,ss,s,0.5169980525970459,True
02,2,False,True,False,False,True,26,ss,s,0.6791889667510986,True
02,2,False,True,False,False,True,27,as,s,1.0108749866485596,False
02,2,False,True,False,False,True,28,ss,s,0.35374999046325684,True
02,2,False,True,False,False,True,29,ss,s,0.1863551139831543,True
02,2,False,True,False,False,True,30,ss,s,0.28182101249694824,True
02,2,False,True,False,False,True,31,ss,s,0.2617950439453125,True
02,2,False,True,False,False,True,32,ss,k,0.30634403228759766,False
02,2,False,True,False,False,True,33,ss,k,0.6691060066223145,False
02,2,False,True,False,False,True,34,ss,s,0.2970259189605713,True
02,2,False,True,False,False,True,35,ss,k,0.5164010524749756,False
02,2,False,True,False,False,True,36,ss,s,0.2944478988647461,True
02,2,False,True,False,False,True,37,as,s,0.5297839641571045,False
02,2,False,True,False,False,True,38,as,s,0.45183706283569336,False
02,2,False,True,False,False,True,39,as,s,0.9046080112457275,False
02,2,False,True,False,False,True,40,ss,k,0.7791709899902344,False
02,3,False,True,False,True,False,1,sv,s,1.385422945022583,False
02,3,False,True,False,True,False,2,sv,s,2.152338981628418,False
02,3,False,True,False,True,False,3,ss,s,0.9371821880340576,True
02,3,False,True,False,True,False,4,ss,s,3.626352071762085,True
02,3,False,True,False,True,False,5,sv,s,0.8162720203399658,False
02,3,False,True,False,True,False,6,ss,s,4.2143940925598145,True
02,3,False,True,False,True,False,7,ss,s,0.4211609363555908,True
02,3,False,True,False,True,False,8,ss,s,0.2670290470123291,True
02,3,False,True,False,True,False,9,ss,k,0.9992198944091797,False
02,3,False,True,False,True,False,10,ss,k,1.8297770023345947,False
02,3,False,True,False,True,False,11,ss,s,0.27577805519104004,True
02,3,False,True,False,True,False,12,sv,k,1.0557408332824707,True
02,3,False,True,False,True,False,13,ss,s,0.6844470500946045,True
02,3,False,True,False,True,False,14,ss,s,0.2637519836425781,True
02,3,False,True,False,True,False,15,ss,s,0.2764701843261719,True
02,3,False,True,False,True,False,16,ss,s,0.608504056930542,True
02,3,False,True,False,True,False,17,ss,s,0.6070370674133301,True
02,3,False,True,False,True,False,18,ss,s,0.5257861614227295,True
02,3,False,True,False,True,False,19,ss,k,1.1040148735046387,False
02,3,False,True,False,True,False,20,ss,s,0.29840087890625,True
02,3,False,True,False,True,False,21,sv,s,0.46978306770324707,False
02,3,False,True,False,True,False,22,ss,s,0.23376703262329102,True
02,3,False,True,False,True,False,23,ss,s,0.3111691474914551,True
02,3,False,True,False,True,False,24,sv,s,0.2898430824279785,False
02,3,False,True,False,True,False,25,ss,s,0.6050689220428467,True
02,3,False,True,False,True,False,26,sv,s,0.5557901859283447,False
02,3,False,True,False,True,False,27,ss,k,0.828402042388916,False
02,3,False,True,False,True,False,28,ss,s,0.818411111831665,True
02,3,False,True,False,True,False,29,ss,k,2.2002289295196533,False
02,3,False,True,False,True,False,30,ss,s,0.3590967655181885,True
02,3,False,True,False,True,False,31,sv,s,0.35178685188293457,False
02,3,False,True,False,True,False,32,ss,s,0.6324541568756104,True
02,3,False,True,False,True,False,33,sv,s,0.7257590293884277,False
02,3,False,True,False,True,False,34,ss,s,0.5758419036865234,True
02,3,False,True,False,True,False,35,sv,s,0.5437350273132324,False
02,3,False,True,False,True,False,36,ss,s,0.8490099906921387,True
02,3,False,True,False,True,False,37,ss,k,0.21375203132629395,False
02,3,False,True,False,True,False,38,ss,s,0.1004481315612793,True
02,3,False,True,False,True,False,39,ss,s,0.2790341377258301,True
02,3,False,True,False,True,False,40,sv,s,1.059067964553833,False
02,4,True,False,False,False,True,1,ss,s,1.4079580307006836,True
02,4,True,False,False,False,True,2,ss,s,0.7023739814758301,True
02,4,True,False,False,False,True,3,as,s,0.569155216217041,False
02,4,True,False,False,False,True,4,ss,s,2.137054920196533,True
02,4,True,False,False,False,True,5,ss,s,0.570267915725708,True
02,4,True,False,False,False,True,6,as,k,0.41037893295288086,True
02,4,True,False,False,False,True,7,ss,s,0.4971449375152588,True
02,4,True,False,False,False,True,8,as,s,0.34046006202697754,False
02,4,True,False,False,False,True,9,ss,s,0.8298110961914062,True
02,4,True,False,False,False,True,10,ss,k,0.3875138759613037,False
02,4,True,False,False,False,True,11,ss,s,0.5390479564666748,True
02,4,True,False,False,False,True,12,as,k,1.2444491386413574,True
02,4,True,False,False,False,True,13,ss,s,0.19383502006530762,True
02,4,True,False,False,False,True,14,ss,s,0.2730238437652588,True
02,4,True,False,False,False,True,15,ss,s,0.2850360870361328,True
02,4,True,False,False,False,True,16,ss,s,0.4404458999633789,True
02,4,True,False,False,False,True,17,as,k,0.30185794830322266,True
02,4,True,False,False,False,True,18,ss,s,0.45638012886047363,True
02,4,True,False,False,False,True,19,as,s,0.22112393379211426,False
02,4,True,False,False,False,True,20,ss,s,0.7951171398162842,True
02,4,True,False,False,False,True,21,ss,s,0.2744131088256836,True
02,4,True,False,False,False,True,22,as,k,0.36649298667907715,True
02,4,True,False,False,False,True,23,ss,s,0.21440505981445312,True
02,4,True,False,False,False,True,24,ss,s,0.5011460781097412,True
02,4,True,False,False,False,True,25,as,s,0.23168396949768066,False
02,4,True,False,False,False,True,26,ss,s,0.2938380241394043,True
02,4,True,False,False,False,True,27,ss,s,0.19304394721984863,True
02,4,True,False,False,False,True,28,ss,s,0.22423195838928223,True
02,4,True,False,False,False,True,29,ss,k,0.2704169750213623,False
02,4,True,False,False,False,True,30,ss,k,0.5704920291900635,False
02,4,True,False,False,False,True,31,ss,s,0.3463621139526367,True
02,4,True,False,False,False,True,32,as,s,0.2757680416107178,False
02,4,True,False,False,False,True,33,ss,s,0.3198549747467041,True
02,4,True,False,False,False,True,34,ss,s,0.2498641014099121,True
02,4,True,False,False,False,True,35,ss,s,0.1664578914642334,True
02,4,True,False,False,False,True,36,ss,k,0.6944329738616943,False
02,4,True,False,False,False,True,37,as,s,0.1457681655883789,False
02,4,True,False,False,False,True,38,ss,s,0.46723198890686035,True
02,4,True,False,False,False,True,39,ss,s,0.23111510276794434,True
02,4,True,False,False,False,True,40,ss,s,0.2610189914703369,True
02,5,False,True,True,False,False,1,ss,s,1.4181108474731445,True
02,5,False,True,True,False,False,2,av,s,0.2800290584564209,False
02,5,False,True,True,False,False,3,ss,s,1.0277760028839111,True
02,5,False,True,True,False,False,4,ss,k,0.3537919521331787,False
02,5,False,True,True,False,False,5,ss,s,0.33034610748291016,True
02,5,False,True,True,False,False,6,av,s,1.09238600730896,False
02,5,False,True,True,False,False,7,ss,s,0.47981905937194824,True
02,5,False,True,True,False,False,8,ss,s,0.46793103218078613,True
02,5,False,True,True,False,False,9,ss,k,1.0156850814819336,False
02,5,False,True,True,False,False,10,ss,k,0.4858670234680176,False
02,5,False,True,True,False,False,11,ss,s,0.28100085258483887,True
02,5,False,True,True,False,False,12,ss,k,0.4530370235443115,False
02,5,False,True,True,False,False,13,ss,s,0.39374208450317383,True
02,5,False,True,True,False,False,14,ss,s,0.5770320892333984,True
02,5,False,True,True,False,False,15,ss,s,0.27304816246032715,True
02,5,False,True,True,False,False,16,ss,s,1.485138177871704,True
02,5,False,True,True,False,False,17,ss,k,0.31246495246887207,False
02,5,False,True,True,False,False,18,av,s,0.3070371150970459,False
02,5,False,True,True,False,False,19,ss,s,0.4297640323638916,True
02,5,False,True,True,False,False,20,av,s,0.2597939968109131,False
02,5,False,True,True,False,False,21,ss,s,0.46445298194885254,True
02,5,False,True,True,False,False,22,ss,s,0.14918303489685059,True
02,5,False,True,True,False,False,23,ss,s,0.3256669044494629,True
02,5,False,True,True,False,False,24,ss,k,0.33589792251586914,False
02,5,False,True,True,False,False,25,ss,k,1.1292109489440918,False
02,5,False,True,True,False,False,26,av,s,0.2591359615325928,False
02,5,False,True,True,False,False,27,ss,s,0.5278468132019043,True
02,5,False,True,True,False,False,28,ss,s,0.27382898330688477,True
02,5,False,True,True,False,False,29,ss,s,0.6218128204345703,True
02,5,False,True,True,False,False,30,av,s,1.8838260173797607,False
02,5,False,True,True,False,False,31,ss,s,0.37507200241088867,True
02,5,False,True,True,False,False,32,ss,s,1.4071948528289795,True
02,5,False,True,True,False,False,33,av,s,0.5578799247741699,False
02,5,False,True,True,False,False,34,av,s,0.46222686767578125,False
02,5,False,True,True,False,False,35,ss,s,0.5951411724090576,True
02,5,False,True,True,False,False,36,ss,s,0.17827296257019043,True
02,5,False,True,True,False,False,37,av,s,0.49831295013427734,False
02,5,False,True,True,False,False,38,ss,s,0.4216749668121338,True
02,5,False,True,True,False,False,39,av,s,0.04391598701477051,False
02,5,False,True,True,False,False,40,ss,s,0.433337926864624,True
02,6,True,False,False,False,True,1,as,s,1.0866148471832275,False
02,6,True,False,False,False,True,2,ss,k,1.9297840595245361,False
02,6,True,False,False,False,True,3,as,s,0.020035982131958008,False
02,6,True,False,False,False,True,4,ss,s,2.121856927871704,True
02,6,True,False,False,False,True,5,ss,k,0.39575695991516113,False
02,6,True,False,False,False,True,6,ss,s,0.5630600452423096,True
02,6,True,False,False,False,True,7,as,k,0.6118919849395752,True
02,6,True,False,False,False,True,8,ss,s,0.30626487731933594,True
02,6,True,False,False,False,True,9,ss,s,0.237091064453125,True
02,6,True,False,False,False,True,10,as,s,0.28241395950317383,False
02,6,True,False,False,False,True,11,ss,s,0.6617691516876221,True
02,6,True,False,False,False,True,12,ss,s,0.7702419757843018,True
02,6,True,False,False,False,True,13,as,s,0.39438605308532715,False
02,6,True,False,False,False,True,14,ss,s,0.6420660018920898,True
02,6,True,False,False,False,True,15,ss,s,0.5111801624298096,True
02,6,True,False,False,False,True,16,ss,s,0.3858938217163086,True
02,6,True,False,False,False,True,17,as,k,0.31310319900512695,True
02,6,True,False,False,False,True,18,ss,s,0.3238539695739746,True
02,6,True,False,False,False,True,19,ss,s,0.23778295516967773,True
02,6,True,False,False,False,True,20,ss,s,0.4591329097747803,True
02,6,True,False,False,False,True,21,ss,k,0.31997108459472656,False
02,6,True,False,False,False,True,22,as,k,0.5377769470214844,True
02,6,True,False,False,False,True,23,ss,s,0.45911598205566406,True
02,6,True,False,False,False,True,24,as,s,0.23981213569641113,False
02,6,True,False,False,False,True,25,ss,s,0.3011901378631592,True
02,6,True,False,False,False,True,26,ss,k,1.0316741466522217,False
02,6,True,False,False,False,True,27,ss,k,0.8538219928741455,False
02,6,True,False,False,False,True,28,as,k,1.0503108501434326,True
02,6,True,False,False,False,True,29,ss,s,0.31113481521606445,True
02,6,True,False,False,False,True,30,ss,s,0.2898068428039551,True
02,6,True,False,False,False,True,31,ss,s,0.36516880989074707,True
02,6,True,False,False,False,True,32,as,s,1.429940938949585,False
02,6,True,False,False,False,True,33,ss,s,0.43587803840637207,True
02,6,True,False,False,False,True,34,ss,s,0.18508481979370117,True
02,6,True,False,False,False,True,35,ss,s,0.3444819450378418,True
02,6,True,False,False,False,True,36,as,s,1.521916151046753,False
02,6,True,False,False,False,True,37,as,s,0.2998471260070801,False
02,6,True,False,False,False,True,38,ss,s,0.5502569675445557,True
02,6,True,False,False,False,True,39,ss,s,0.42316579818725586,True
02,6,True,False,False,False,True,40,ss,k,0.813068151473999,False
02,7,False,True,False,True,False,1,sv,s,1.271369218826294,False
02,7,False,True,False,True,False,2,ss,s,3.24307918548584,True
02,7,False,True,False,True,False,3,ss,k,0.4644479751586914,False
02,7,False,True,False,True,False,4,ss,s,0.5010859966278076,True
02,7,False,True,False,True,False,5,ss,k,0.7278320789337158,False
02,7,False,True,False,True,False,6,ss,s,0.6578578948974609,True
02,7,False,True,False,True,False,7,ss,s,0.7824480533599854,True
02,7,False,True,False,True,False,8,ss,k,0.6298761367797852,False
02,7,False,True,False,True,False,9,ss,s,0.3878660202026367,True
02,7,False,True,False,True,False,10,ss,s,0.2990748882293701,True
02,7,False,True,False,True,False,11,ss,s,1.125920057296753,True
02,7,False,True,False,True,False,12,sv,s,0.6558609008789062,False
02,7,False,True,False,True,False,13,sv,s,0.6844491958618164,False
02,7,False,True,False,True,False,14,sv,s,0.6638610363006592,False
02,7,False,True,False,True,False,15,ss,k,0.5642790794372559,False
02,7,False,True,False,True,False,16,ss,s,0.5010640621185303,True
02,7,False,True,False,True,False,17,sv,s,1.0798320770263672,False
02,7,False,True,False,True,False,18,ss,s,0.6438491344451904,True
02,7,False,True,False,True,False,19,sv,s,0.6730911731719971,False
02,7,False,True,False,True,False,20,ss,s,1.2611548900604248,True
02,7,False,True,False,True,False,21,ss,s,1.0577149391174316,True
02,7,False,True,False,True,False,22,sv,k,0.5424370765686035,True
02,7,False,True,False,True,False,23,ss,s,0.5438590049743652,True
02,7,False,True,False,True,False,24,ss,s,0.4331550598144531,True
02,7,False,True,False,True,False,25,ss,k,0.6624372005462646,False
02,7,False,True,False,True,False,26,sv,k,0.9952590465545654,True
02,7,False,True,False,True,False,27,sv,s,0.3065788745880127,False
02,7,False,True,False,True,False,28,ss,s,1.6770901679992676,True
02,7,False,True,False,True,False,29,ss,k,0.32115793228149414,False
02,7,False,True,False,True,False,30,ss,k,0.8269600868225098,False
02,7,False,True,False,True,False,31,ss,s,0.3051948547363281,True
02,7,False,True,False,True,False,32,sv,k,0.6518721580505371,True
02,7,False,True,False,True,False,33,ss,s,0.3924257755279541,True
02,7,False,True,False,True,False,34,ss,s,0.3198690414428711,True
02,7,False,True,False,True,False,35,ss,s,0.34572505950927734,True
02,7,False,True,False,True,False,36,ss,k,0.7389390468597412,False
02,7,False,True,False,True,False,37,ss,k,1.1325459480285645,False
02,7,False,True,False,True,False,38,ss,s,0.27785181999206543,True
02,7,False,True,False,True,False,39,sv,s,0.4178578853607178,False
02,7,False,True,False,True,False,40,sv,s,0.5679681301116943,False
02,8,True,False,False,True,False,1,ss,s,0.7993950843811035,True
02,8,True,False,False,True,False,2,ss,s,0.43785595893859863,True
02,8,True,False,False,True,False,3,ss,s,2.7470431327819824,True
02,8,True,False,False,True,False,4,sv,s,0.3243539333343506,False
02,8,True,False,False,True,False,5,ss,s,0.7824177742004395,True
02,8,True,False,False,True,False,6,ss,s,0.3578319549560547,True
02,8,True,False,False,True,False,7,ss,s,0.6704161167144775,True
02,8,True,False,False,True,False,8,ss,k,0.44228315353393555,False
02,8,True,False,False,True,False,9,sv,k,1.5038371086120605,True
02,8,True,False,False,True,False,10,ss,s,0.4904210567474365,True
02,8,True,False,False,True,False,11,sv,s,0.2858390808105469,False
02,8,True,False,False,True,False,12,ss,s,1.7689228057861328,True
02,8,True,False,False,True,False,13,ss,s,0.2811448574066162,True
02,8,True,False,False,True,False,14,ss,k,0.5170328617095947,False
02,8,True,False,False,True,False,15,ss,k,1.5910909175872803,False
02,8,True,False,False,True,False,16,sv,k,0.926422119140625,True
02,8,True,False,False,True,False,17,ss,s,0.7523128986358643,True
02,8,True,False,False,True,False,18,ss,s,0.3290669918060303,True
02,8,True,False,False,True,False,19,ss,s,0.5950701236724854,True
02,8,True,False,False,True,False,20,ss,s,0.5463950634002686,True
02,8,True,False,False,True,False,21,sv,k,0.5157051086425781,True
02,8,True,False,False,True,False,22,ss,s,0.3258960247039795,True
02,8,True,False,False,True,False,23,ss,s,0.591839075088501,True
02,8,True,False,False,True,False,24,ss,s,0.30306100845336914,True
02,8,True,False,False,True,False,25,sv,s,0.29789209365844727,False
02,8,True,False,False,True,False,26,ss,s,0.5011849403381348,True
02,8,True,False,False,True,False,27,ss,s,0.10382890701293945,True
02,8,True,False,False,True,False,28,sv,k,0.266495943069458,True
02,8,True,False,False,True,False,29,ss,s,0.40641283988952637,True
02,8,True,False,False,True,False,30,ss,k,0.3010878562927246,False
02,8,True,False,False,True,False,31,ss,k,0.7438502311706543,False
02,8,True,False,False,True,False,32,ss,s,0.561093807220459,True
02,8,True,False,False,True,False,33,sv,k,0.3858969211578369,True
02,8,True,False,False,True,False,34,sv,s,0.6969399452209473,False
02,8,True,False,False,True,False,35,ss,s,1.3324499130249023,True
02,8,True,False,False,True,False,36,ss,k,0.709881067276001,False
02,8,True,False,False,True,False,37,sv,s,0.5123698711395264,False
02,8,True,False,False,True,False,38,ss,s,1.1072008609771729,True
02,8,True,False,False,True,False,39,ss,s,0.33383703231811523,True
02,8,True,False,False,True,False,40,ss,s,0.31108713150024414,True
02,9,False,True,True,False,False,1,ss,s,1.1982269287109375,True
02,9,False,True,True,False,False,2,ss,s,0.2610330581665039,True
02,9,False,True,True,False,False,3,ss,s,0.4338200092315674,True
02,9,False,True,True,False,False,4,ss,s,0.31095194816589355,True
02,9,False,True,True,False,False,5,av,s,0.32189488410949707,False
02,9,False,True,True,False,False,6,ss,s,0.4276289939880371,True
02,9,False,True,True,False,False,7,ss,s,0.35403990745544434,True
02,9,False,True,True,False,False,8,ss,s,0.410261869430542,True
02,9,False,True,True,False,False,9,ss,s,0.3851737976074219,True
02,9,False,True,True,False,False,10,ss,k,0.8085219860076904,False
02,9,False,True,True,False,False,11,ss,k,0.750993013381958,False
02,9,False,True,True,False,False,12,av,s,0.31187009811401367,False
02,9,False,True,True,False,False,13,ss,s,0.4024319648742676,True
02,9,False,True,True,False,False,14,av,s,0.249068021774292,False
02,9,False,True,True,False,False,15,ss,s,0.3578660488128662,True
02,9,False,True,True,False,False,16,av,s,0.17445993423461914,False
02,9,False,True,True,False,False,17,ss,s,0.31860804557800293,True
02,9,False,True,True,False,False,18,ss,s,0.13668203353881836,True
02,9,False,True,True,False,False,19,ss,s,0.2017359733581543,True
02,9,False,True,True,False,False,20,ss,s,0.28036999702453613,True
02,9,False,True,True,False,False,21,ss,k,0.2766711711883545,False
02,9,False,True,True,False,False,22,av,k,1.072525978088379,True
02,9,False,True,True,False,False,23,ss,s,0.2685220241546631,True
02,9,False,True,True,False,False,24,ss,s,0.4884021282196045,True
02,9,False,True,True,False,False,25,av,s,0.1719050407409668,False
02,9,False,True,True,False,False,26,ss,s,0.5398120880126953,True
02,9,False,True,True,False,False,27,ss,k,0.3652369976043701,False
02,9,False,True,True,False,False,28,ss,k,0.3098769187927246,False
02,9,False,True,True,False,False,29,ss,s,0.032691001892089844,True
02,9,False,True,True,False,False,30,av,s,0.14991188049316406,False
02,9,False,True,True,False,False,31,ss,s,0.4385230541229248,True
02,9,False,True,True,False,False,32,ss,s,0.23580002784729004,True
02,9,False,True,True,False,False,33,ss,s,0.37694692611694336,True
02,9,False,True,True,False,False,34,ss,k,0.9130480289459229,False
02,9,False,True,True,False,False,35,ss,k,0.9638159275054932,False
02,9,False,True,True,False,False,36,av,k,0.35654616355895996,True
02,9,False,True,True,False,False,37,ss,s,0.4772379398345947,True
02,9,False,True,True,False,False,38,ss,s,0.24108195304870605,True
02,9,False,True,True,False,False,39,ss,k,0.5583438873291016,False
02,9,False,True,True,False,False,40,ss,k,0.815079927444458,False
02,10,True,False,False,True,False,1,ss,s,0.5653409957885742,True
02,10,True,False,False,True,False,2,ss,s,0.2619321346282959,True
02,10,True,False,False,True,False,3,ss,s,0.11449813842773438,True
02,10,True,False,False,True,False,4,sv,s,0.3572700023651123,False
02,10,True,False,False,True,False,5,ss,s,0.5736989974975586,True
02,10,True,False,False,True,False,6,ss,s,0.3659019470214844,True
02,10,True,False,False,True,False,7,ss,s,0.5339958667755127,True
02,10,True,False,False,True,False,8,sv,s,1.3989951610565186,False
02,10,True,False,False,True,False,9,ss,s,0.6618340015411377,True
02,10,True,False,False,True,False,10,sv,s,0.37050795555114746,False
02,10,True,False,False,True,False,11,ss,s,0.6985979080200195,True
02,10,True,False,False,True,False,12,ss,s,0.8539299964904785,True
02,10,True,False,False,True,False,13,sv,s,0.9704780578613281,False
02,10,True,False,False,True,False,14,ss,s,0.39444398880004883,True
02,10,True,False,False,True,False,15,ss,s,0.32178807258605957,True
02,10,True,False,False,True,False,16,ss,k,0.5080850124359131,False
02,10,True,False,False,True,False,17,sv,k,0.5265388488769531,True
02,10,True,False,False,True,False,18,ss,s,0.5284998416900635,True
02,10,True,False,False,True,False,19,ss,s,0.4823729991912842,True
02,10,True,False,False,True,False,20,ss,k,0.29369211196899414,False
02,10,True,False,False,True,False,21,sv,k,0.3851759433746338,True
02,10,True,False,False,True,False,22,sv,s,0.31252408027648926,False
02,10,True,False,False,True,False,23,ss,s,1.6189539432525635,True
02,10,True,False,False,True,False,24,ss,s,0.985131025314331,True
02,10,True,False,False,True,False,25,sv,k,0.2963430881500244,True
02,10,True,False,False,True,False,26,ss,s,0.33987903594970703,True
02,10,True,False,False,True,False,27,sv,s,0.3172030448913574,False
02,10,True,False,False,True,False,28,ss,s,0.4551880359649658,True
02,10,True,False,False,True,False,29,sv,s,0.2838008403778076,False
02,10,True,False,False,True,False,30,ss,s,0.7911801338195801,True
02,10,True,False,False,True,False,31,ss,s,0.23869085311889648,True
02,10,True,False,False,True,False,32,sv,s,0.31565308570861816,False
02,10,True,False,False,True,False,33,ss,s,0.2619361877441406,True
02,10,True,False,False,True,False,34,ss,s,0.05053997039794922,True
02,10,True,False,False,True,False,35,ss,s,0.40710902214050293,True
02,10,True,False,False,True,False,36,sv,k,0.26991987228393555,True
02,10,True,False,False,True,False,37,ss,s,0.3137698173522949,True
02,10,True,False,False,True,False,38,sv,s,0.27659106254577637,False
02,10,True,False,False,True,False,39,ss,k,1.4246759414672852,False
02,10,True,False,False,True,False,40,ss,k,0.19054293632507324,False
02,11,True,False,True,False,False,1,ss,s,0.6607160568237305,True
02,11,True,False,True,False,False,2,ss,s,0.4011549949645996,True
02,11,True,False,True,False,False,3,ss,s,0.32790589332580566,True
02,11,True,False,True,False,False,4,ss,s,0.6737978458404541,True
02,11,True,False,True,False,False,5,av,s,0.7017979621887207,False
02,11,True,False,True,False,False,6,ss,s,0.5524911880493164,True
02,11,True,False,True,False,False,7,av,s,0.2971200942993164,False
02,11,True,False,True,False,False,8,ss,s,0.38849496841430664,True
02,11,True,False,True,False,False,9,ss,s,0.6197810173034668,True
02,11,True,False,True,False,False,10,ss,s,0.20189905166625977,True
02,11,True,False,True,False,False,11,ss,k,0.18451285362243652,False
02,11,True,False,True,False,False,12,ss,s,1.463874101638794,True
02,11,True,False,True,False,False,13,av,k,0.34049105644226074,True
02,11,True,False,True,False,False,14,ss,s,0.4138319492340088,True
02,11,True,False,True,False,False,15,ss,s,0.14853119850158691,True
02,11,True,False,True,False,False,16,av,s,0.4858999252319336,False
02,11,True,False,True,False,False,17,ss,s,0.36124682426452637,True
02,11,True,False,True,False,False,18,ss,s,0.4338088035583496,True
02,11,True,False,True,False,False,19,ss,s,0.3591010570526123,True
02,11,True,False,True,False,False,20,ss,s,0.5599720478057861,True
02,11,True,False,True,False,False,21,av,s,0.5925700664520264,False
02,11,True,False,True,False,False,22,av,s,0.38396596908569336,False
02,11,True,False,True,False,False,23,ss,s,0.9992399215698242,True
02,11,True,False,True,False,False,24,ss,s,0.22992992401123047,True
02,11,True,False,True,False,False,25,av,k,0.323822021484375,True
02,11,True,False,True,False,False,26,ss,s,0.31780195236206055,True
02,11,True,False,True,False,False,27,ss,s,0.08790898323059082,True
02,11,True,False,True,False,False,28,av,s,0.0591580867767334,False
02,11,True,False,True,False,False,29,ss,s,0.2559380531311035,True
02,11,True,False,True,False,False,30,ss,s,0.0606379508972168,True
02,11,True,False,True,False,False,31,av,s,0.36916089057922363,False
02,11,True,False,True,False,False,32,ss,s,0.40940093994140625,True
02,11,True,False,True,False,False,33,ss,s,0.7038729190826416,True
02,11,True,False,True,False,False,34,ss,s,0.2985501289367676,True
02,11,True,False,True,False,False,35,ss,k,0.3259580135345459,False
02,11,True,False,True,False,False,36,av,k,0.73586106300354,True
02,11,True,False,True,False,False,37,ss,s,0.36121606826782227,True
02,11,True,False,True,False,False,38,ss,s,0.6097550392150879,True
02,11,True,False,True,False,False,39,ss,k,0.2565610408782959,False
02,11,True,False,True,False,False,40,ss,s,1.309126853942871,True
02,12,True,False,True,False,False,1,av,s,0.6801519393920898,False
02,12,True,False,True,False,False,2,ss,k,0.6277320384979248,False
02,12,True,False,True,False,False,3,ss,s,0.14589977264404297,True
02,12,True,False,True,False,False,4,ss,s,0.1312570571899414,True
02,12,True,False,True,False,False,5,av,s,0.22910404205322266,False
02,12,True,False,True,False,False,6,ss,s,0.25925111770629883,True
02,12,True,False,True,False,False,7,av,s,0.4155888557434082,False
02,12,True,False,True,False,False,8,av,s,0.2457900047302246,False
02,12,True,False,True,False,False,9,ss,s,1.555001974105835,True
02,12,True,False,True,False,False,10,ss,s,0.07577300071716309,True
02,12,True,False,True,False,False,11,av,k,0.623784065246582,True
02,12,True,False,True,False,False,12,ss,s,0.2538571357727051,True
02,12,True,False,True,False,False,13,ss,s,0.37850093841552734,True
02,12,True,False,True,False,False,14,ss,s,0.37038707733154297,True
02,12,True,False,True,False,False,15,ss,k,0.21874403953552246,False
02,12,True,False,True,False,False,16,av,k,0.5365188121795654,True
02,12,True,False,True,False,False,17,ss,s,0.2818758487701416,True
02,12,True,False,True,False,False,18,av,s,0.29395198822021484,False
02,12,True,False,True,False,False,19,ss,s,0.24119806289672852,True
02,12,True,False,True,False,False,20,ss,s,0.11060714721679688,True
02,12,True,False,True,False,False,21,ss,k,0.12953495979309082,False
02,12,True,False,True,False,False,22,av,k,0.6752979755401611,True
02,12,True,False,True,False,False,23,ss,s,0.30312609672546387,True
02,12,True,False,True,False,False,24,ss,s,0.04179978370666504,True
02,12,True,False,True,False,False,25,ss,s,0.1111760139465332,True
02,12,True,False,True,False,False,26,av,s,0.17788410186767578,False
02,12,True,False,True,False,False,27,av,s,0.2897670269012451,False
02,12,True,False,True,False,False,28,ss,s,0.5411100387573242,True
02,12,True,False,True,False,False,29,ss,k,0.30255985260009766,False
02,12,True,False,True,False,False,30,ss,k,0.4892280101776123,False
02,12,True,False,True,False,False,31,ss,k,0.652515172958374,False
02,12,True,False,True,False,False,32,ss,s,0.04122591018676758,True
02,12,True,False,True,False,False,33,ss,s,0.6225001811981201,True
02,12,True,False,True,False,False,34,ss,k,0.30056190490722656,False
02,12,True,False,True,False,False,35,av,s,0.359220027923584,False
02,12,True,False,True,False,False,36,ss,s,0.7197740077972412,True
02,12,True,False,True,False,False,37,ss,s,0.29793310165405273,True
02,12,True,False,True,False,False,38,ss,k,0.4691469669342041,False
02,12,True,False,True,False,False,39,av,s,0.13724303245544434,False
02,12,True,False,True,False,False,40,ss,s,0.29853200912475586,True
02,13,True,False,True,True,True,1,ss,s,0.985522985458374,True
02,13,True,False,True,True,True,2,sv,s,0.24857306480407715,False
02,13,True,False,True,True,True,3,sv,s,1.6537811756134033,False
02,13,True,False,True,True,True,4,ss,s,0.6185610294342041,True
02,13,True,False,True,True,True,5,ss,k,0.5526130199432373,False
02,13,True,False,True,True,True,6,ss,s,0.3770110607147217,True
02,13,True,False,True,True,True,7,ss,s,1.1372179985046387,True
02,13,True,False,True,True,True,8,av,s,0.4264531135559082,False
02,13,True,False,True,True,True,9,ss,k,0.9445610046386719,False
02,13,True,False,True,True,True,10,ss,s,0.2897801399230957,True
02,13,True,False,True,True,True,11,ss,s,0.33322811126708984,True
02,13,True,False,True,True,True,12,ss,s,0.27851200103759766,True
02,13,True,False,True,True,True,13,as,s,0.1305251121520996,False
02,13,True,False,True,True,True,14,ss,s,1.6684749126434326,True
02,13,True,False,True,True,True,15,ss,s,0.08856487274169922,True
02,13,True,False,True,True,True,16,ss,s,0.15583300590515137,True
02,13,True,False,True,True,True,17,as,k,0.1086430549621582,True
02,13,True,False,True,True,True,18,ss,s,0.3032379150390625,True
02,13,True,False,True,True,True,19,ss,s,0.4256300926208496,True
02,13,True,False,True,True,True,20,ss,s,0.4960341453552246,True
02,13,True,False,True,True,True,21,sv,k,0.21119093894958496,True
02,13,True,False,True,True,True,22,ss,s,0.09771609306335449,True
02,13,True,False,True,True,True,23,ss,s,0.5491230487823486,True
02,13,True,False,True,True,True,24,ss,s,0.05392122268676758,True
02,13,True,False,True,True,True,25,sv,k,0.05853915214538574,True
02,13,True,False,True,True,True,26,ss,s,0.11107397079467773,True
02,13,True,False,True,True,True,27,ss,s,0.6099598407745361,True
02,13,True,False,True,True,True,28,ss,s,0.06452798843383789,True
02,13,True,False,True,True,True,29,sv,k,0.34131693840026855,True
02,13,True,False,True,True,True,30,ss,s,0.19057989120483398,True
02,13,True,False,True,True,True,31,ss,s,0.20603489875793457,True
02,13,True,False,True,True,True,32,ss,s,0.07651400566101074,True
02,13,True,False,True,True,True,33,ss,k,0.08056902885437012,False
02,13,True,False,True,True,True,34,av,k,0.7725770473480225,True
02,13,True,False,True,True,True,35,ss,s,0.30058789253234863,True
02,13,True,False,True,True,True,36,ss,s,0.2631840705871582,True
02,13,True,False,True,True,True,37,sv,s,0.25989794731140137,False
02,13,True,False,True,True,True,38,ss,s,0.6885740756988525,True
02,13,True,False,True,True,True,39,ss,s,0.2998490333557129,True
02,13,True,False,True,True,True,40,sv,k,1.1105880737304688,True
02,14,False,True,True,True,True,1,ss,s,0.5601048469543457,True
02,14,False,True,True,True,True,2,as,s,0.30460190773010254,False
02,14,False,True,True,True,True,3,ss,s,0.3790428638458252,True
02,14,False,True,True,True,True,4,ss,k,0.2911691665649414,False
02,14,False,True,True,True,True,5,ss,s,0.20658183097839355,True
02,14,False,True,True,True,True,6,sv,s,0.6852641105651855,False
02,14,False,True,True,True,True,7,ss,s,3.016587018966675,True
02,14,False,True,True,True,True,8,ss,s,0.26246094703674316,True
02,14,False,True,True,True,True,9,as,s,0.41918206214904785,False
02,14,False,True,True,True,True,10,ss,s,0.5530710220336914,True
02,14,False,True,True,True,True,11,sv,s,0.28180599212646484,False
02,14,False,True,True,True,True,12,ss,s,0.6138591766357422,True
02,14,False,True,True,True,True,13,av,s,0.3405730724334717,False
02,14,False,True,True,True,True,14,ss,s,1.3257670402526855,True
02,14,False,True,True,True,True,15,av,s,0.22386407852172852,False
02,14,False,True,True,True,True,16,ss,s,0.4298288822174072,True
02,14,False,True,True,True,True,17,ss,k,0.19590306282043457,False
02,14,False,True,True,True,True,18,ss,s,0.3230440616607666,True
02,14,False,True,True,True,True,19,ss,s,0.12524008750915527,True
02,14,False,True,True,True,True,20,as,k,0.28720593452453613,True
02,14,False,True,True,True,True,21,ss,s,0.23456883430480957,True
02,14,False,True,True,True,True,22,sv,k,0.1678311824798584,True
02,14,False,True,True,True,True,23,ss,s,0.13585591316223145,True
02,14,False,True,True,True,True,24,as,k,1.1291978359222412,True
02,14,False,True,True,True,True,25,ss,s,0.5311341285705566,True
02,14,False,True,True,True,True,26,sv,k,0.021377086639404297,True
02,14,False,True,True,True,True,27,sv,s,0.09120607376098633,False
02,14,False,True,True,True,True,28,ss,s,0.5744249820709229,True
02,14,False,True,True,True,True,29,ss,s,0.23856019973754883,True
02,14,False,True,True,True,True,30,ss,s,0.6517848968505859,True
02,14,False,True,True,True,True,31,av,k,0.28047990798950195,True
02,14,False,True,True,True,True,32,ss,s,0.6926040649414062,True
02,14,False,True,True,True,True,33,av,k,0.15990900993347168,True
02,14,False,True,True,True,True,34,ss,s,0.0008330345153808594,True
02,14,False,True,True,True,True,35,as,k,0.023253917694091797,True
02,14,False,True,True,True,True,36,ss,s,0.07722902297973633,True
02,14,False,True,True,True,True,37,ss,s,0.20917606353759766,True
02,14,False,True,True,True,True,38,ss,s,0.5119590759277344,True
02,14,False,True,True,True,True,39,ss,k,0.5146780014038086,False
02,14,False,True,True,True,True,40,sv,k,0.5331640243530273,True
02,15,False,True,True,True,True,1,sv,s,1.192007064819336,False
02,15,False,True,True,True,True,2,ss,s,0.15926003456115723,True
02,15,False,True,True,True,True,3,ss,k,1.375849962234497,False
02,15,False,True,True,True,True,4,ss,s,0.1118309497833252,True
02,15,False,True,True,True,True,5,sv,s,0.7225332260131836,False
02,15,False,True,True,True,True,6,ss,s,0.7324838638305664,True
02,15,False,True,True,True,True,7,as,s,0.16583991050720215,False
02,15,False,True,True,True,True,8,ss,s,0.6459050178527832,True
02,15,False,True,True,True,True,9,sv,s,0.24321889877319336,False
02,15,False,True,True,True,True,10,ss,s,0.6565299034118652,True
02,15,False,True,True,True,True,11,av,k,0.17313909530639648,True
02,15,False,True,True,True,True,12,ss,s,0.22121810913085938,True
02,15,False,True,True,True,True,13,ss,k,0.1391739845275879,False
02,15,False,True,True,True,True,14,as,k,0.4606740474700928,True
02,15,False,True,True,True,True,15,ss,s,0.3051731586456299,True
02,15,False,True,True,True,True,16,ss,k,0.2519209384918213,False
02,15,False,True,True,True,True,17,ss,k,0.7126178741455078,False
02,15,False,True,True,True,True,18,ss,k,0.8511850833892822,False
02,15,False,True,True,True,True,19,ss,s,0.29584693908691406,True
02,15,False,True,True,True,True,20,ss,k,0.24318408966064453,False
02,15,False,True,True,True,True,21,ss,s,0.27256202697753906,True
02,15,False,True,True,True,True,22,ss,s,0.5086050033569336,True
02,15,False,True,True,True,True,23,ss,k,0.6072380542755127,False
02,15,False,True,True,True,True,24,av,s,0.2699401378631592,False
02,15,False,True,True,True,True,25,ss,s,0.5858747959136963,True
02,15,False,True,True,True,True,26,ss,s,0.18512916564941406,True
02,15,False,True,True,True,True,27,sv,s,0.7284832000732422,False
02,15,False,True,True,True,True,28,ss,s,0.5306320190429688,True
02,15,False,True,True,True,True,29,sv,s,0.38860297203063965,False
02,15,False,True,True,True,True,30,ss,s,0.5879120826721191,True
02,15,False,True,True,True,True,31,ss,s,0.29916906356811523,True
02,15,False,True,True,True,True,32,ss,k,0.1818561553955078,False
02,15,False,True,True,True,True,33,ss,s,1.221811056137085,True
02,15,False,True,True,True,True,34,ss,k,0.31575894355773926,False
02,15,False,True,True,True,True,35,ss,s,0.37392401695251465,True
02,15,False,True,True,True,True,36,ss,k,0.6217861175537109,False
02,15,False,True,True,True,True,37,ss,s,0.3638339042663574,True
02,15,False,True,True,True,True,38,sv,s,0.32460618019104004,False
02,15,False,True,True,True,True,39,ss,s,0.4145359992980957,True
02,15,False,True,True,True,True,40,ss,s,1.1092591285705566,True
02,16,True,False,True,True,True,1,ss,s,0.5881571769714355,True
02,16,True,False,True,True,True,2,ss,s,0.49123287200927734,True
02,16,True,False,True,True,True,3,ss,s,0.7826130390167236,True
02,16,True,False,True,True,True,4,sv,s,0.22992491722106934,False
02,16,True,False,True,True,True,5,ss,s,0.6279029846191406,True
02,16,True,False,True,True,True,6,ss,s,0.16180086135864258,True
02,16,True,False,True,True,True,7,ss,s,0.2744579315185547,True
02,16,True,False,True,True,True,8,as,k,0.25454092025756836,True
02,16,True,False,True,True,True,9,ss,s,0.2031700611114502,True
02,16,True,False,True,True,True,10,as,s,0.24993395805358887,False
02,16,True,False,True,True,True,11,ss,s,0.8704738616943359,True
02,16,True,False,True,True,True,12,ss,k,0.5705699920654297,False
02,16,True,False,True,True,True,13,ss,s,0.23461413383483887,True
02,16,True,False,True,True,True,14,ss,k,0.11985111236572266,False
02,16,True,False,True,True,True,15,sv,s,0.32984495162963867,False
02,16,True,False,True,True,True,16,ss,s,3.4439477920532227,True
02,16,True,False,True,True,True,17,ss,s,0.24118804931640625,True
02,16,True,False,True,True,True,18,as,s,1.2946031093597412,False
02,16,True,False,True,True,True,19,ss,k,1.4099159240722656,False
02,16,True,False,True,True,True,20,ss,s,0.6086399555206299,True
02,16,True,False,True,True,True,21,ss,s,0.2711780071258545,True
02,16,True,False,True,True,True,22,ss,s,2.571165084838867,True
02,16,True,False,True,True,True,23,as,s,0.4272501468658447,False
02,16,True,False,True,True,True,24,ss,s,0.9931190013885498,True
02,16,True,False,True,True,True,25,ss,s,0.4486382007598877,True
02,16,True,False,True,True,True,26,ss,s,0.26183414459228516,True
02,16,True,False,True,True,True,27,as,k,0.27462100982666016,True
02,16,True,False,True,True,True,28,ss,s,0.2705981731414795,True
02,16,True,False,True,True,True,29,ss,k,0.26662397384643555,False
02,16,True,False,True,True,True,30,ss,s,0.5826389789581299,True
02,16,True,False,True,True,True,31,as,k,1.5258049964904785,True
02,16,True,False,True,True,True,32,ss,s,0.30385398864746094,True
02,16,True,False,True,True,True,33,sv,k,0.20251798629760742,True
02,16,True,False,True,True,True,34,ss,s,0.3291749954223633,True
02,16,True,False,True,True,True,35,ss,s,0.09912705421447754,True
02,16,True,False,True,True,True,36,ss,k,0.22988104820251465,False
02,16,True,False,True,True,True,37,av,s,0.0996999740600586,False
02,16,True,False,True,True,True,38,ss,s,0.6305530071258545,True
02,16,True,False,True,True,True,39,ss,s,0.5165951251983643,True
02,16,True,False,True,True,True,40,ss,s,0.5185878276824951,True
02,17,False,True,True,True,True,1,ss,s,0.8108110427856445,True
02,17,False,True,True,True,True,2,as,s,0.17725086212158203,False
02,17,False,True,True,True,True,3,as,s,0.24120402336120605,False
02,17,False,True,True,True,True,4,ss,s,0.4145679473876953,True
02,17,False,True,True,True,True,5,sv,k,0.22928190231323242,True
02,17,False,True,True,True,True,6,ss,k,0.4832329750061035,False
02,17,False,True,True,True,True,7,as,s,0.3745110034942627,False
02,17,False,True,True,True,True,8,ss,s,3.310586929321289,True
02,17,False,True,True,True,True,9,as,k,0.24121403694152832,True
02,17,False,True,True,True,True,10,as,k,0.5426509380340576,True
02,17,False,True,True,True,True,11,ss,s,0.30414390563964844,True
02,17,False,True,True,True,True,12,ss,k,0.8585140705108643,False
02,17,False,True,True,True,True,13,ss,k,0.3352091312408447,False
02,17,False,True,True,True,True,14,ss,s,1.768604040145874,True
02,17,False,True,True,True,True,15,ss,k,0.5525779724121094,False
02,17,False,True,True,True,True,16,ss,s,0.4252490997314453,True
02,17,False,True,True,True,True,17,ss,s,0.511293888092041,True
02,17,False,True,True,True,True,18,ss,s,0.8498549461364746,True
02,17,False,True,True,True,True,19,as,k,0.5185248851776123,True
02,17,False,True,True,True,True,20,ss,s,0.45664095878601074,True
02,17,False,True,True,True,True,21,ss,s,0.30115604400634766,True
02,17,False,True,True,True,True,22,ss,s,0.27986812591552734,True
02,17,False,True,True,True,True,23,ss,s,0.26001596450805664,True
02,17,False,True,True,True,True,24,as,s,0.9766340255737305,False
02,17,False,True,True,True,True,25,as,s,0.32064104080200195,False
02,17,False,True,True,True,True,26,ss,s,0.8266451358795166,True
02,17,False,True,True,True,True,27,ss,k,0.41660594940185547,False
02,17,False,True,True,True,True,28,ss,s,0.4866619110107422,True
02,17,False,True,True,True,True,29,sv,k,0.6818289756774902,True
02,17,False,True,True,True,True,30,ss,s,0.5498600006103516,True
02,17,False,True,True,True,True,31,ss,s,0.5505678653717041,True
02,17,False,True,True,True,True,32,ss,s,0.5830838680267334,True
02,17,False,True,True,True,True,33,ss,s,0.21459102630615234,True
02,17,False,True,True,True,True,34,ss,k,0.34126996994018555,False
02,17,False,True,True,True,True,35,as,k,0.270798921585083,True
02,17,False,True,True,True,True,36,ss,s,0.3306899070739746,True
02,17,False,True,True,True,True,37,ss,s,0.24462103843688965,True
02,17,False,True,True,True,True,38,ss,s,0.25799012184143066,True
02,17,False,True,True,True,True,39,sv,s,0.17458891868591309,False
02,17,False,True,True,True,True,40,ss,s,0.43065619468688965,True
02,18,False,True,True,True,True,1,ss,s,0.4909789562225342,True
02,18,False,True,True,True,True,2,ss,s,0.4938838481903076,True
02,18,False,True,True,True,True,3,sv,s,0.3533470630645752,False
02,18,False,True,True,True,True,4,ss,s,0.7298638820648193,True
02,18,False,True,True,True,True,5,ss,s,0.27593994140625,True
02,18,False,True,True,True,True,6,av,k,0.15982604026794434,True
02,18,False,True,True,True,True,7,ss,s,0.32078003883361816,True
02,18,False,True,True,True,True,8,ss,s,0.25046300888061523,True
02,18,False,True,True,True,True,9,sv,s,0.23111391067504883,False
02,18,False,True,True,True,True,10,ss,s,0.24503397941589355,True
02,18,False,True,True,True,True,11,ss,s,0.11449599266052246,True
02,18,False,True,True,True,True,12,ss,k,0.22907304763793945,False
02,18,False,True,True,True,True,13,ss,s,1.171051025390625,True
02,18,False,True,True,True,True,14,ss,k,0.39533209800720215,False
02,18,False,True,True,True,True,15,av,s,0.6107029914855957,False
02,18,False,True,True,True,True,16,ss,s,1.2012031078338623,True
02,18,False,True,True,True,True,17,as,s,0.1519467830657959,False
02,18,False,True,True,True,True,18,ss,s,0.5526108741760254,True
02,18,False,True,True,True,True,19,ss,s,0.1532289981842041,True
02,18,False,True,True,True,True,20,ss,s,0.5859279632568359,True
02,18,False,True,True,True,True,21,ss,s,0.16941213607788086,True
02,18,False,True,True,True,True,22,ss,s,0.8251769542694092,True
02,18,False,True,True,True,True,23,ss,k,0.2712409496307373,False
02,18,False,True,True,True,True,24,ss,s,0.3792998790740967,True
02,18,False,True,True,True,True,25,ss,k,0.6912341117858887,False
02,18,False,True,True,True,True,26,ss,s,0.09473204612731934,True
02,18,False,True,True,True,True,27,ss,s,0.20998907089233398,True
02,18,False,True,True,True,True,28,ss,k,1.248676061630249,False
02,18,False,True,True,True,True,29,sv,s,0.4058511257171631,False
02,18,False,True,True,True,True,30,ss,s,0.6205799579620361,True
02,18,False,True,True,True,True,31,as,s,0.5226349830627441,False
02,18,False,True,True,True,True,32,ss,s,0.3005199432373047,True
02,18,False,True,True,True,True,33,ss,s,0.29519081115722656,True
02,18,False,True,True,True,True,34,sv,s,0.7226288318634033,False
02,18,False,True,True,True,True,35,ss,s,0.3324878215789795,True
02,18,False,True,True,True,True,36,ss,s,0.19786405563354492,True
02,18,False,True,True,True,True,37,ss,s,0.5972080230712891,True
02,18,False,True,True,True,True,38,ss,s,0.3085598945617676,True
02,18,False,True,True,True,True,39,ss,k,0.2872469425201416,False
02,18,False,True,True,True,True,40,ss,k,0.7145869731903076,False
02,19,True,False,True,True,True,1,ss,s,0.41805481910705566,True
02,19,True,False,True,True,True,2,as,s,0.008012056350708008,False
02,19,True,False,True,True,True,3,ss,s,1.0065228939056396,True
02,19,True,False,True,True,True,4,ss,k,0.3010680675506592,False
02,19,True,False,True,True,True,5,ss,s,0.3918759822845459,True
02,19,True,False,True,True,True,6,ss,s,0.255155086517334,True
02,19,True,False,True,True,True,7,sv,s,0.33172607421875,False
02,19,True,False,True,True,True,8,ss,s,1.2858669757843018,True
02,19,True,False,True,True,True,9,ss,s,0.2012789249420166,True
02,19,True,False,True,True,True,10,ss,s,0.08786296844482422,True
02,19,True,False,True,True,True,11,ss,k,0.23531794548034668,False
02,19,True,False,True,True,True,12,as,k,0.7605359554290771,True
02,19,True,False,True,True,True,13,ss,s,1.2652578353881836,True
02,19,True,False,True,True,True,14,ss,s,0.13396692276000977,True
02,19,True,False,True,True,True,15,ss,s,1.0632710456848145,True
02,19,True,False,True,True,True,16,av,s,0.2759828567504883,False
02,19,True,False,True,True,True,17,av,s,0.6239612102508545,False
02,19,True,False,True,True,True,18,ss,s,1.9978768825531006,True
02,19,True,False,True,True,True,19,ss,k,0.30933523178100586,False
02,19,True,False,True,True,True,20,ss,k,1.0077238082885742,False
02,19,True,False,True,True,True,21,av,s,0.09457993507385254,False
02,19,True,False,True,True,True,22,ss,s,0.8498690128326416,True
02,19,True,False,True,True,True,23,ss,s,0.24672317504882812,True
02,19,True,False,True,True,True,24,ss,s,1.3798961639404297,True
02,19,True,False,True,True,True,25,as,k,0.8678970336914062,True
02,19,True,False,True,True,True,26,ss,s,0.2800009250640869,True
02,19,True,False,True,True,True,27,ss,s,0.24405694007873535,True
02,19,True,False,True,True,True,28,ss,s,0.5772678852081299,True
02,19,True,False,True,True,True,29,ss,k,0.8332479000091553,False
02,19,True,False,True,True,True,30,ss,s,0.19873905181884766,True
02,19,True,False,True,True,True,31,as,s,0.13397216796875,False
02,19,True,False,True,True,True,32,ss,s,0.6310930252075195,True
02,19,True,False,True,True,True,33,av,s,0.14925003051757812,False
02,19,True,False,True,True,True,34,ss,s,0.5977199077606201,True
02,19,True,False,True,True,True,35,ss,s,0.2612488269805908,True
02,19,True,False,True,True,True,36,sv,k,0.25791001319885254,True
02,19,True,False,True,True,True,37,ss,s,0.30256199836730957,True
02,19,True,False,True,True,True,38,ss,s,0.6652710437774658,True
02,19,True,False,True,True,True,39,ss,s,0.22996902465820312,True
02,19,True,False,True,True,True,40,sv,k,0.3078880310058594,True
02,20,True,False,True,True,True,1,as,s,0.5209269523620605,False
02,20,True,False,True,True,True,2,ss,k,0.7626619338989258,False
02,20,True,False,True,True,True,3,ss,s,0.4993319511413574,True
02,20,True,False,True,True,True,4,ss,s,0.37410807609558105,True
02,20,True,False,True,True,True,5,av,s,0.6219909191131592,False
02,20,True,False,True,True,True,6,ss,s,0.5078918933868408,True
02,20,True,False,True,True,True,7,ss,s,0.30264806747436523,True
02,20,True,False,True,True,True,8,ss,s,0.36110997200012207,True
02,20,True,False,True,True,True,9,ss,k,0.30591416358947754,False
02,20,True,False,True,True,True,10,av,k,0.49251389503479004,True
02,20,True,False,True,True,True,11,ss,s,0.319976806640625,True
02,20,True,False,True,True,True,12,ss,s,0.1699538230895996,True
02,20,True,False,True,True,True,13,sv,s,0.12200403213500977,False
02,20,True,False,True,True,True,14,sv,s,0.6199290752410889,False
02,20,True,False,True,True,True,15,ss,s,1.209805965423584,True
02,20,True,False,True,True,True,16,ss,k,0.3046720027923584,False
02,20,True,False,True,True,True,17,ss,s,0.3311488628387451,True
02,20,True,False,True,True,True,18,av,k,0.7091290950775146,True
02,20,True,False,True,True,True,19,ss,s,0.31987881660461426,True
02,20,True,False,True,True,True,20,ss,s,0.34597206115722656,True
02,20,True,False,True,True,True,21,ss,s,0.8513329029083252,True
02,20,True,False,True,True,True,22,ss,k,1.031987190246582,False
02,20,True,False,True,True,True,23,ss,s,0.2939929962158203,True
02,20,True,False,True,True,True,24,as,s,0.4013521671295166,False
02,20,True,False,True,True,True,25,ss,s,0.7119081020355225,True
02,20,True,False,True,True,True,26,ss,s,0.21071600914001465,True
02,20,True,False,True,True,True,27,ss,s,0.22528791427612305,True
02,20,True,False,True,True,True,28,ss,s,0.8314719200134277,True
02,20,True,False,True,True,True,29,av,k,0.2773160934448242,True
02,20,True,False,True,True,True,30,ss,s,0.2571098804473877,True
02,20,True,False,True,True,True,31,ss,s,0.18992185592651367,True
02,20,True,False,True,True,True,32,av,s,0.1413109302520752,False
02,20,True,False,True,True,True,33,ss,s,0.2388288974761963,True
02,20,True,False,True,True,True,34,ss,k,0.07593393325805664,False
02,20,True,False,True,True,True,35,av,k,0.8319189548492432,True
02,20,True,False,True,True,True,36,ss,s,0.2941601276397705,True
02,20,True,False,True,True,True,37,ss,s,0.43320298194885254,True
02,20,True,False,True,True,True,38,ss,s,0.15067505836486816,True
02,20,True,False,True,True,True,39,sv,s,0.1993401050567627,False
02,20,True,False,True,True,True,40,ss,s,0.3259139060974121,True
02,21,False,True,True,True,True,1,ss,s,0.7176320552825928,True
02,21,False,True,True,True,True,2,ss,s,0.18329596519470215,True
02,21,False,True,True,True,True,3,ss,s,0.16671204566955566,True
02,21,False,True,True,True,True,4,ss,s,0.3266770839691162,True
02,21,False,True,True,True,True,5,ss,s,0.40062808990478516,True
02,21,False,True,True,True,True,6,ss,s,0.2794311046600342,True
02,21,False,True,True,True,True,7,sv,s,0.3232569694519043,False
02,21,False,True,True,True,True,8,ss,s,0.5574631690979004,True
02,21,False,True,True,True,True,9,sv,s,0.22201991081237793,False
02,21,False,True,True,True,True,10,sv,s,1.2439520359039307,False
02,21,False,True,True,True,True,11,ss,s,2.1932969093322754,True
02,21,False,True,True,True,True,12,as,s,0.2086019515991211,False
02,21,False,True,True,True,True,13,ss,s,1.0072789192199707,True
02,21,False,True,True,True,True,14,ss,s,0.1417560577392578,True
02,21,False,True,True,True,True,15,ss,s,0.015609025955200195,True
02,21,False,True,True,True,True,16,ss,s,0.037409067153930664,True
02,21,False,True,True,True,True,17,ss,s,0.21858596801757812,True
02,21,False,True,True,True,True,18,ss,s,0.24854683876037598,True
02,21,False,True,True,True,True,19,as,k,0.32596898078918457,True
02,21,False,True,True,True,True,20,ss,s,0.4479091167449951,True
02,21,False,True,True,True,True,21,ss,k,0.30928587913513184,False
02,21,False,True,True,True,True,22,ss,k,0.5921738147735596,False
02,21,False,True,True,True,True,23,ss,s,0.4312551021575928,True
02,21,False,True,True,True,True,24,sv,s,0.30928492546081543,False
02,21,False,True,True,True,True,25,ss,s,0.6400249004364014,True
02,21,False,True,True,True,True,26,sv,s,0.12526798248291016,False
02,21,False,True,True,True,True,27,ss,k,1.839277982711792,False
02,21,False,True,True,True,True,28,sv,k,0.26853084564208984,True
02,21,False,True,True,True,True,29,ss,s,0.7927248477935791,True
02,21,False,True,True,True,True,30,ss,s,5.103874921798706,True
02,21,False,True,True,True,True,31,ss,k,0.2986750602722168,False
02,21,False,True,True,True,True,32,ss,s,0.31001996994018555,True
02,21,False,True,True,True,True,33,av,s,0.7686131000518799,False
02,21,False,True,True,True,True,34,av,s,0.3287019729614258,False
02,21,False,True,True,True,True,35,ss,s,0.77052903175354,True
02,21,False,True,True,True,True,36,ss,k,0.2986929416656494,False
02,21,False,True,True,True,True,37,ss,s,0.1819620132446289,True
02,21,False,True,True,True,True,38,ss,s,0.02213597297668457,True
02,21,False,True,True,True,True,39,sv,s,0.15600204467773438,False
02,21,False,True,True,True,True,40,ss,s,0.47652697563171387,True
02,22,True,False,True,True,True,1,ss,s,0.47562599182128906,True
02,22,True,False,True,True,True,2,ss,s,0.15926408767700195,True
02,22,True,False,True,True,True,3,sv,s,0.2878241539001465,False
02,22,True,False,True,True,True,4,ss,s,0.587414026260376,True
02,22,True,False,True,True,True,5,ss,s,0.2985961437225342,True
02,22,True,False,True,True,True,6,ss,k,0.2619340419769287,False
02,22,True,False,True,True,True,7,ss,k,0.674666166305542,False
02,22,True,False,True,True,True,8,av,s,0.2545039653778076,False
02,22,True,False,True,True,True,9,ss,s,1.0832579135894775,True
02,22,True,False,True,True,True,10,ss,s,0.29441213607788086,True
02,22,True,False,True,True,True,11,ss,k,0.6899058818817139,False
02,22,True,False,True,True,True,12,ss,s,0.2530529499053955,True
02,22,True,False,True,True,True,13,as,s,0.2017669677734375,False
02,22,True,False,True,True,True,14,as,s,0.28063297271728516,False
02,22,True,False,True,True,True,15,ss,s,0.6925950050354004,True
02,22,True,False,True,True,True,16,ss,s,0.27188706398010254,True
02,22,True,False,True,True,True,17,ss,k,0.2840139865875244,False
02,22,True,False,True,True,True,18,av,s,0.27928686141967773,False
02,22,True,False,True,True,True,19,ss,s,1.3632659912109375,True
02,22,True,False,True,True,True,20,sv,s,0.403980016708374,False
02,22,True,False,True,True,True,21,ss,s,0.5865919589996338,True
02,22,True,False,True,True,True,22,ss,s,0.20193791389465332,True
02,22,True,False,True,True,True,23,ss,s,0.6966931819915771,True
02,22,True,False,True,True,True,24,ss,k,1.4439189434051514,False
02,22,True,False,True,True,True,25,sv,s,0.41729116439819336,False
02,22,True,False,True,True,True,26,ss,s,1.511324167251587,True
02,22,True,False,True,True,True,27,ss,s,0.36989808082580566,True
02,22,True,False,True,True,True,28,ss,s,0.20180106163024902,True
02,22,True,False,True,True,True,29,sv,k,1.7366950511932373,True
02,22,True,False,True,True,True,30,ss,s,0.24996614456176758,True
02,22,True,False,True,True,True,31,ss,s,0.1825559139251709,True
02,22,True,False,True,True,True,32,sv,s,0.22984695434570312,False
02,22,True,False,True,True,True,33,ss,s,0.2758140563964844,True
02,22,True,False,True,True,True,34,ss,k,0.2720510959625244,False
02,22,True,False,True,True,True,35,ss,k,0.3960089683532715,False
02,22,True,False,True,True,True,36,sv,s,0.16338014602661133,False
02,22,True,False,True,True,True,37,sv,s,0.43584609031677246,False
02,22,True,False,True,True,True,38,ss,s,1.0173118114471436,True
02,22,True,False,True,True,True,39,ss,s,0.3913381099700928,True
02,22,True,False,True,True,True,40,ss,k,1.1986680030822754,False
02,23,True,False,True,True,True,1,as,s,0.5608730316162109,False
02,23,True,False,True,True,True,2,as,s,1.1692829132080078,False
02,23,True,False,True,True,True,3,ss,k,0.6013278961181641,False
02,23,True,False,True,True,True,4,ss,s,0.13595008850097656,True
02,23,True,False,True,True,True,5,ss,k,1.1931710243225098,False
02,23,True,False,True,True,True,6,av,s,0.2565929889678955,False
02,23,True,False,True,True,True,7,ss,k,0.813305139541626,False
02,23,True,False,True,True,True,8,ss,s,0.27593398094177246,True
02,23,True,False,True,True,True,9,ss,s,0.9119470119476318,True
02,23,True,False,True,True,True,10,ss,s,0.5945930480957031,True
02,23,True,False,True,True,True,11,av,s,0.6579430103302002,False
02,23,True,False,True,True,True,12,ss,s,0.8466110229492188,True
02,23,True,False,True,True,True,13,sv,s,0.4359619617462158,False
02,23,True,False,True,True,True,14,ss,k,2.6332778930664062,False
02,23,True,False,True,True,True,15,ss,s,0.3106560707092285,True
02,23,True,False,True,True,True,16,ss,s,0.3853731155395508,True
02,23,True,False,True,True,True,17,ss,s,0.45665812492370605,True
02,23,True,False,True,True,True,18,sv,s,0.5573270320892334,False
02,23,True,False,True,True,True,19,ss,s,0.5100011825561523,True
02,23,True,False,True,True,True,20,ss,s,0.1285691261291504,True
02,23,True,False,True,True,True,21,ss,s,0.11464905738830566,True
02,23,True,False,True,True,True,22,ss,k,0.24539589881896973,False
02,23,True,False,True,True,True,23,sv,k,0.3545949459075928,True
02,23,True,False,True,True,True,24,ss,s,0.3793330192565918,True
02,23,True,False,True,True,True,25,ss,s,0.2593541145324707,True
02,23,True,False,True,True,True,26,ss,s,0.2719380855560303,True
02,23,True,False,True,True,True,27,av,s,0.25183987617492676,False
02,23,True,False,True,True,True,28,ss,s,0.32874298095703125,True
02,23,True,False,True,True,True,29,ss,s,0.19473505020141602,True
02,23,True,False,True,True,True,30,ss,s,0.30587196350097656,True
02,23,True,False,True,True,True,31,ss,s,0.44466710090637207,True
02,23,True,False,True,True,True,32,sv,k,0.35383105278015137,True
02,23,True,False,True,True,True,33,ss,s,0.5226759910583496,True
02,23,True,False,True,True,True,34,as,s,0.5404641628265381,False
02,23,True,False,True,True,True,35,ss,s,0.3657970428466797,True
02,23,True,False,True,True,True,36,ss,s,0.29401421546936035,True
02,23,True,False,True,True,True,37,ss,k,0.913538932800293,False
02,23,True,False,True,True,True,38,as,s,0.2919480800628662,False
02,23,True,False,True,True,True,39,ss,s,0.47939300537109375,True
02,23,True,False,True,True,True,40,ss,s,0.2753159999847412,True
02,24,False,True,True,True,True,1,av,s,1.1949398517608643,False
02,24,False,True,True,True,True,2,ss,k,0.7540338039398193,False
02,24,False,True,True,True,True,3,av,s,0.1544790267944336,False
02,24,False,True,True,True,True,4,ss,s,0.4914419651031494,True
02,24,False,True,True,True,True,5,ss,k,0.27062201499938965,False
02,24,False,True,True,True,True,6,av,s,0.3624591827392578,False
02,24,False,True,True,True,True,7,ss,s,0.35529494285583496,True
02,24,False,True,True,True,True,8,as,s,0.2359480857849121,False
02,24,False,True,True,True,True,9,ss,s,0.3293590545654297,True
02,24,False,True,True,True,True,10,ss,s,0.30739903450012207,True
02,24,False,True,True,True,True,11,ss,k,0.2697880268096924,False
02,24,False,True,True,True,True,12,ss,k,0.5859830379486084,False
02,24,False,True,True,True,True,13,ss,k,1.5613601207733154,False
02,24,False,True,True,True,True,14,av,s,0.3539731502532959,False
02,24,False,True,True,True,True,15,ss,s,0.7785241603851318,True
02,24,False,True,True,True,True,16,sv,s,0.22660398483276367,False
02,24,False,True,True,True,True,17,ss,s,0.9284248352050781,True
02,24,False,True,True,True,True,18,ss,k,0.7385129928588867,False
02,24,False,True,True,True,True,19,ss,s,0.1079561710357666,True
02,24,False,True,True,True,True,20,ss,s,0.3825819492340088,True
02,24,False,True,True,True,True,21,av,s,0.5977511405944824,False
02,24,False,True,True,True,True,22,ss,s,1.1255030632019043,True
02,24,False,True,True,True,True,23,ss,s,0.5594029426574707,True
02,24,False,True,True,True,True,24,av,k,0.8637938499450684,True
02,24,False,True,True,True,True,25,ss,s,0.2446129322052002,True
02,24,False,True,True,True,True,26,ss,s,0.1779499053955078,True
02,24,False,True,True,True,True,27,ss,s,0.19391298294067383,True
02,24,False,True,True,True,True,28,ss,k,0.28937697410583496,False
02,24,False,True,True,True,True,29,ss,k,0.5404701232910156,False
02,24,False,True,True,True,True,30,ss,s,0.269819974899292,True
02,24,False,True,True,True,True,31,ss,s,0.6179549694061279,True
02,24,False,True,True,True,True,32,ss,s,0.7120249271392822,True
02,24,False,True,True,True,True,33,sv,s,0.5147569179534912,False
02,24,False,True,True,True,True,34,ss,s,0.40547895431518555,True
02,24,False,True,True,True,True,35,ss,s,0.20405983924865723,True
02,24,False,True,True,True,True,36,ss,s,0.3787388801574707,True
02,24,False,True,True,True,True,37,ss,s,0.4026980400085449,True
02,24,False,True,True,True,True,38,ss,s,0.3933730125427246,True
02,24,False,True,True,True,True,39,av,s,0.7845878601074219,False
02,24,False,True,True,True,True,40,av,s,0.3279130458831787,False
